Acc_X,Acc_Y,Acc_Z,Gyro_X,Gyro_Y,Gyro_Z
-0.6176775752136618,8.397993889916078,0.8898085060727614,0.16930861527489677,-0.7915970970744484,1.8725735784328084
0.170099288547258,8.629107661829309,2.4148789050225425,1.1581548118790679,1.2566821988199253,0.3999753622691058
3.4707143395338775,8.113395357763235,-7.017621672986623,2.9490500139995977,2.0858184933751156,-4.686094641875961
-2.5582168100288722,10.550102905849974,4.351452829677045,3.184450890666686,-2.5179321064299316,-0.20541358083333883
5.336161232863859,8.234177777489604,2.9591090955856583,5.854119701041912,0.2732855953311417,-4.130244473144462
-1.184325954365723,9.36199647510991,1.9992596608376747,-0.5559986487119013,0.26299741666329224,4.513122694702766
-1.5498820897270176,8.919343362588698,2.7412930276120404,1.0198638842278567,-0.9724490880662302,0.31326249671261464
-0.30795072215675456,9.739727395491363,2.0907033829040578,-4.992141683585693,-0.23466072101984636,2.0324426199514627
0.38489702902846235,7.668531899284082,3.3835570318746724,-0.6659477129512208,0.08659519190140214,1.4406659887738882
2.8004244010694146,10.189323556563483,3.086331978390224,-0.6186858931239929,1.4230169497534333,-0.13069645949813424
-3.568062467093403,10.889677994270007,2.988445349356873,1.2227557063195764,3.8436569350868126,1.1054354513555031
0.5711494736201925,7.428953561187849,0.26176071501402465,1.1198022192491095,0.12573738236340698,2.1290378192326855
9.16758961242158,12.491190001818582,2.8580397994085245,3.2430767478859663,-0.2327083619651109,2.1491068650845486
1.9346751006658254,10.402385224678707,3.509097074286627,-1.5105539987789203,0.386005367084144,1.820247549177978e-05
0.27140449180384807,13.946908195761589,3.2148491983142122,-1.0592879384459695,0.607065199850394,1.8767244761366655
0.10568289457725243,10.071830144385693,0.07347505133122355,-0.005804069903706891,0.06395963866133941,0.008074612771651248
-0.8276994267717289,9.741157735692047,3.363392517196356,0.09754452192557117,0.7967286547472383,-0.07619894197129617
0.005670118302416722,9.711887768749403,-0.04498932677975576,-0.002765007230358672,0.0010139006461241844,0.0032138000722074477
3.1816355436821553,8.816490811983282,2.133188947163474,-0.3010559824594574,1.959556393460384,0.3463370706704506
0.16838935993262316,10.618582981720158,1.3205926583354608,0.4205121844068421,0.8783901350333165,-0.09925090478601417
1.583597614662963,5.280852014817587,3.275967069367593,-0.9557398037640499,0.6161536307397112,1.820153694987118
2.7696989467654793,9.901644802552116,-3.9460138116505306,3.767528067715694,2.3394198010399414,2.8580187497368152
4.109402094920747,7.408662761250369,5.021722860526433,1.8241669033191172,1.733545589255774,0.12899978951317603
0.988386490157883,8.47808840458003,2.264318381607622,1.3095125431935961,0.8515861482615952,0.24225765738112992
-5.361289208056228,5.4411804520204194,3.8392775910405548,2.690806091859725,4.184705249791939,1.7753148086460429
-3.657424253396929,11.45012198828282,9.401507184196223,2.7868863214678283,2.461444351935592,-1.486310883114145
2.3465210441041,14.735509504686517,3.3920148590446892,-0.30760121024102083,1.8665810184407796,3.1270027131245497
0.7421376416499397,6.279678939927763,1.6558023943115656,0.08463449430224451,1.167713655800178,1.4659748916427717
-6.476442131836584,10.653686624259876,3.732202103829783,1.8031795828735344,0.4021632327389826,1.3893896993476054
2.2720790233011634,9.578333452121583,4.292338841742368,0.27966427795893634,0.7722638524513178,1.6458623594654456
3.0742180741846363,8.989747019266561,3.4146748509954,0.18680779254508056,-0.38343324565360637,2.328443426597367
1.3160394685272998,9.642243650033064,4.030992045058932,0.6988506488546918,-0.6566676053922147,1.6900862202316602
0.035206566594515196,8.57911909236814,3.1041857261295416,2.8762159871941657,0.27412470606490147,0.9075353101503523
1.6675908155740988,13.944847062818829,6.084942354729234,-0.49895123525493457,1.8680845364460805,-6.206181447727319
1.3506717307531733,7.01049362474196,9.87635684142342,3.7811103002033395,0.4806806894160973,-2.62986403176318
-0.22231074855327299,9.844405729280979,1.108818029991502,0.3180626766434108,0.05575786765417917,1.1530346549532673
1.3971605870885995,10.240708635696798,5.802646041167938,1.2741062971646495,2.3698108467819052,1.979032844039094
-0.5161920536480448,8.263853289735868,2.0659038857488237,0.3688659890670151,1.7958807027908361,2.212445182046819
-0.6910630015871154,15.264604269535198,3.1189542266546484,4.334834377183051,2.670882356601131,0.37012371929538834
1.153399952793895,9.944138995859902,1.1228849524876308,0.14479155532317253,0.20495309208926737,0.12653427591966707
-0.9581395910025181,11.862091796913763,0.8703402429032308,2.4481829495251333,0.3823033560589007,1.9187075740351978
-2.7051863622417507,9.728376907224735,2.152990379496244,0.0012504458384914319,1.6206499477673388,-0.5791098224482565
3.5908295017520855,14.676871521665815,4.342426098950411,-2.717398659091674,3.9278773312613535,2.161363510766394
-2.2121349803385035,9.112890732474874,0.2924027387959165,1.8283895697330073,2.7477184433374413,2.5066349724336785
-1.846230471772477,12.103472588965865,-0.24576539806818687,4.71631350887529,1.3512557298583778,4.929707648846133
-1.368146818026926,9.488766858211306,1.014371519203109,0.09777260781311689,0.8230715389080232,0.9238752842275189
-0.7671477975969225,9.765867896268393,0.6401626560307134,1.9625916147088673,-0.7063613318439044,1.679435267433188
0.1466201236419534,9.438869685189855,3.225159594549905,0.2210544534629107,-0.9630822064547044,-0.6139882699972039
-1.3861387779458116,11.934503079949522,2.1279706827303237,1.5073196475507638,0.4869091435767745,1.5195761576981057
-2.5868271526795876,9.49160271275345,3.2668706643174,0.8959090063974422,0.5910232236415265,-0.885282022718352
2.5242160698401968,7.779187139543738,2.0478222086389817,0.21704424264027167,0.780037498841341,0.1114210959365024
-3.8415277286665335,10.583286683693524,0.6009138408474985,7.9853494238539735,-2.0907967689981284,-2.6443301553191656
-7.488308363706943,5.022876033059493,5.11174881842735,2.3038547327051226,3.313559539722778,0.3713498247185809
-2.603720682599516,10.393538081442875,0.6591929463252146,-0.34368983382563056,0.010697281468287856,-0.5118318744813812
5.866275030627904,7.783554776472624,9.273515970446212,-3.9825254676256696,2.435417379226942,0.04494072403283278
2.1881490366681953,9.86966630852744,1.6201968339388884,-0.024047799032016925,1.2168954078104086,0.1747958055835218
-0.5341508434711913,12.071978345689915,1.4299769621503386,1.8139712786198454,0.2979531460266932,1.0550158944728136
0.45504226777158596,6.436743379693638,4.279689690815486,1.1519385955178256,0.44425779870102894,0.04381135741268305
1.404355902989524,12.244712346369482,2.560735147039062,5.336124070475772,4.487274322863305,0.9037865066691599
1.3747938246312028,9.867356721441933,1.687985172476567,-0.6013605767204269,-0.5253709664116595,0.4055973979802523
-0.374346641417364,14.351400256795941,3.0977963229610226,0.7686126698180842,2.338625711273955,0.5558694988523922
-1.0736991486325875,6.548228501651643,3.80388256351779,0.6193738669829978,-0.8916701181064826,0.9680589465626948
2.102023413470457,10.77907863265849,1.0044660067540072,0.09912090529041861,-1.2375845878546348,0.2507949521843843
-7.008040969526016,14.569500865342567,7.704407511713491,1.3090793921744641,-0.2659866602163845,4.575632784788948
-1.4084184661620922,17.75085631497483,1.9463010143983484,0.34381007537804753,0.6644099573884255,4.823060911409947
1.2540840550634123,10.440866877815068,4.316726364842196,0.6639330682528091,-1.672429662907434,0.8143297627182082
-0.1374747860709467,7.725972329214331,2.0718094585183335,0.3243416209945308,-0.07199540427300488,0.937717196250057
1.0435183145712152,8.844687235443814,3.9562218683925203,2.8562315366162334,3.641024517523906,3.916720651183995
0.662686901603808,6.7661152899313635,2.2757799866295687,3.8796073664439032,0.8907215070932797,-0.3005295212982615
7.391103192298321,19.61603420926174,13.080524223798134,0.685828853824437,1.3991941604782283,10.17827764131901
2.208214327066114,7.426077933726742,4.373813603740045,2.4605946446983946,-0.5177828198477497,-2.4528160684262152
5.747716267605909,19.991376706491423,4.922641244352393,-5.022402295573479,0.9771603544027767,-0.9951297550887581
-0.030183858338978485,12.742428467678321,7.309029154709956,6.574197812437999,0.3091879816599272,4.093310391990121
-2.634101648216928,9.18584677625582,6.749233054909123,8.2675659157939,-0.5962646474506554,1.889880333293636
-1.6142101773965627,12.394212728536274,2.984682905679782,0.14486629281415936,0.6114017822846562,-0.8736831680196211
-0.9437704087984518,9.70824133559865,1.9900130388042205,0.8493968436985884,1.6536892670372654,0.1630859783337097
0.7273294762447873,8.781320672119184,2.286133846609007,4.393055025180885,7.3718229949843455,2.0902125396836837
-0.14203212690484895,9.865547775519461,0.8932225945871202,-0.3644648491353957,0.2364929737458833,-0.9588523514205429
0.29967138155787443,5.765363971695229,4.24825747319164,1.1547977704795338,-0.06700185845198825,1.5557860189470911
1.7275498205308168,11.666681297540602,1.2181902876457178,1.3161668055943976,-0.9631293023716088,-0.6474342297692148
-5.5715297383140445,13.069488074160402,9.923327385445774,-2.8798642050413488,3.425233855615463,1.0760896286177182
-0.20869850827120326,7.835081060796914,0.38579945798669923,1.824473598180903,0.39422919895050323,-0.8923773492766958
-1.5475743140875737,10.176487043833133,2.3923982157437638,0.8622261186859325,0.4327427255551896,-0.033619622033365104
0.08058115050290678,10.36543999268718,2.8050744643029946,1.470350602470119,2.1555671270408077,0.7655712243659731
-0.11054227703684796,5.353347990858115,7.839983017951467,-2.211332609378129,0.9248396276720908,0.5751508146370412
-1.583064256960736,8.17584266028448,1.768915875601268,1.2302860542718745,2.0965302406813655,-2.5154269125674205
1.0636757257108658,6.68495519069004,8.636821456719577,-1.8530087477939103,1.817210737042243,-4.589514461661447
-0.3852372196116284,11.16766398031682,0.9353688252832661,-0.292228769763761,0.36007607487123516,0.3271729560966974
-1.3233207572266785,14.750371880225991,5.524109071182741,2.991923927991609,0.4758914253091864,3.4094981970904557
-0.6968715352398093,12.551781049155357,4.350201132738658,0.5479841523572542,0.07866479079609034,-0.4409865405532636
1.096668189286398,8.163207891746309,3.3020475007752172,-0.2621077735574058,1.6348703012836834,0.031214230744269378
4.446668964125521,9.484033732760901,9.827044156402279,1.3004086374505481,-4.007664847827644,2.4782956884864764
-2.1405345349168003,6.357536203020851,-0.17558794976928382,-0.08755735160434841,-0.6236131192417573,0.7782019298662766
-2.60491103714166,11.107124665424767,-1.5004973759384161,0.9193406791463954,-1.52154147940406,0.11518898607551442
2.7941438533676264,9.761402249176257,1.8056518030595485,-0.3019221748528246,1.2121109144879765,1.4550020025413923
0.04386202917843961,9.218763008756175,1.2543594235402389,1.7655988270805836,-0.2081595002063239,-0.17637180934008934
-1.6915588684455656,11.318748736798817,10.732748743278123,1.8554239686926053,1.2850854668317175,2.265346552145389
-1.589455755956047,12.064499305633998,5.806575644681514,10.648157965825973,3.8890651705109898,1.4538934266796737
-2.526656636454714,9.469740914204777,0.315140465474002,1.2664644979770867,0.1646922759507335,2.489663690145016
-4.534472312633897,8.999342723417382,1.2099752524534781,0.17828724014466663,-0.7354164868624198,2.4901961561696817
-0.6069109938049517,8.967789855726663,3.495957838767854,1.682004938296517,0.8042794520390928,3.6082756022141136
0.2203077142728293,2.2947272037176534,7.700505437730935,0.1943365727566726,1.0240946382472764,2.4006196488531266
0.6840925424511932,8.184082386610378,2.2407903432724154,0.7666818591661855,0.3119453496673287,1.7148457458839015
0.21052025667926091,6.319222481894579,7.450106502093787,-2.500220504642252,-0.02106125678997728,0.960922637125027
3.6859879726171627,10.040212373170593,0.2149106718959497,2.1495312507444786,1.078934927457046,-0.23125540219950846
-0.8941075566040831,6.265709354925175,4.4905427947201515,6.415728806899677,0.07462079704911995,0.8100561974529924
0.5526263289055571,8.650573955856295,2.140954967985583,0.5931007024876827,1.4304843841332069,1.6832764800645068
4.250971900354334,14.806220719842027,4.722275298456917,4.87825343909352,-1.4120047749479978,1.742816378966121
1.0099451613057262,9.692569815675625,2.0374162190896916,-0.4217217427815515,1.3366185259766328,-0.39703338679578903
-6.198764540143213,20.193276770713226,1.197889517830685,2.8301139211888944,5.951418687405866,-4.18479439210867
0.3255105340260771,9.921627363649993,3.998932760857068,0.8036383140518357,0.20364711609506475,0.35844913871180195
2.066608928767835,10.816613930732613,-2.8577002666162166,0.5105767414825655,-1.9452765496698738,7.469908662480751
-3.5985597127386337,10.946941111924069,6.840817484344766,-1.775701909377934,-0.2462681250266221,0.33683982984535654
-0.17142555953448996,9.804079041424156,-0.01729269556846769,0.0009169563381440768,-0.009396038471707625,-0.004344210076622766
-0.9713357901531116,13.159492094000024,3.2745184365673405,4.076969582733239,0.7619095831723917,1.8150915477099032
-1.4432305521207873,9.752811761757474,6.233916579623521,4.790236742838138,2.2340312827315003,3.8123545910470518
-1.9325146181121982,7.75096337044505,3.628914262529802,0.9462076657673548,0.635602185853437,1.5848783933894548
-1.0051574485074994,12.49834017527871,-1.03851574749351,1.0863883624066846,2.878349397654103,0.36426904022930384
-1.0100746024721865,7.59674839693117,2.199464755541295,-0.8155672866619659,5.209144065814173,-3.114723878534182
-0.0903845437347393,10.793599304248552,2.5046705269720526,-0.41216187204491084,0.40066995278104167,-0.1386271949158865
0.45885043599953135,9.938335279129372,-0.12667861128302244,0.07121893851233194,-0.08622752005383627,0.018964836000289184
-2.1864803006294635,4.90335673538968,11.494942669316188,-2.117355547387768,0.71394326772493,2.455534820233567
1.505956880885782,11.662507582236676,15.287895901239544,1.592015138947964,7.296347863066046,-0.6893186669530387
-3.719680256676536,9.974654473234148,1.0727827752219012,1.3451351041783173,-0.07869815799646673,0.21573328373568507
2.258815252584393,13.01834295240479,7.89997695529161,1.5981367623916267,2.0602807083684054,-4.16190283676827
10.662676584451987,8.933885731944406,1.670916452549362,4.182552308662801,2.0089584943605807,4.626093923317237
-2.286783052846646,13.060247455951703,-0.0520165604426186,0.7551124080340093,0.72496823515458,1.133122503624322
0.3828808429271116,9.48467170292857,1.01644864527506,1.1760681103288195,0.8962259540846786,2.511526396658748
0.680567857441326,14.047262441152345,0.4077775842913123,1.1838860230965338,0.13360376967053245,0.14558313473107037
1.791862704659005,11.353741740262421,2.977962136927886,-0.041718591311405095,2.002196155195911,-0.3847316010550158
-2.0177373869130313,9.07654160677169,2.615072263982422,-0.4470750009765907,1.1486531737474768,1.4304312178218612
-2.6090219184965786,11.593547541442277,0.3544693313064433,-0.24874937854854828,-0.39658098659485996,-0.07223906246496226
1.11016969519946,9.88759827122601,0.5913077845905611,0.24915721660927923,0.2316834398948551,0.14458178588029982
-0.7289448598904238,-0.27313482800115807,2.554110240676317,1.3634337953877642,0.43238626499370114,-2.653601893658448
0.11678708234664743,9.94025841877557,0.42070100942975003,0.06659416036364611,-0.006523816367353582,0.06262879363108924
0.06294236959827998,9.80660491104275,-0.020019192668337342,0.0017444947833834532,-0.04918496385351402,-1.2913782374366502e-05
0.9498776940984794,11.208376089675877,3.3217683256692236,1.2262692885473974,0.20106060490330957,-0.8266348479079959
-0.3231485965783349,9.506121042813525,2.510401477628078,-0.3622174798045294,0.683003267282404,0.799982183634383
-0.08361968970917885,9.388035661482057,2.076282817313304,-3.928583456119412,0.4494120502327681,2.6387259994843344
0.0579270643615917,9.551332208049667,0.18852144249145575,0.053675080961079175,-0.04652239893664873,-0.020891646267269675
-0.11105538138888203,5.37090253199722,-1.7838600031573784,2.1453843657908767,2.2306276056872143,1.9385982158538593
0.20744194719392975,16.45642616460472,1.4624050974998442,-0.9741494202508387,1.5987934285553311,-1.2368777034105207
1.5031159134715328,10.056219496292243,1.7402756723827453,-0.233723974324196,0.45462607309200115,0.9300408496063721
0.7927192587776958,9.65767992481429,0.7109379967139879,-0.24345043894983118,0.31210511540448904,-0.31388886952558426
-1.2007128681733241,8.759720210522353,2.07119719559788,1.3149902964612938,0.38876301293410104,-0.9920898229919588
4.915675552829218,9.241241609484321,7.917699866839337,1.9430127301623452,5.830409566940475,-0.9027779738094872
3.009733083002568,8.195726067039576,5.229949996604356,-0.36396047427829326,0.1409566158730149,0.8487193346666642
0.03101998038443344,13.797248844777256,4.54437215610899,5.100012661293224,4.809444643645324,-1.455049110513138
2.0071288236658877,6.872224830202098,0.6697759170566742,2.1560695176354843,-0.1963654325466221,1.932148159666622
-0.032650432763606074,9.639250429479086,-0.17822980810197261,-0.0004290350464560223,-0.04320006803374891,-0.009482805424710028
1.0901031106198138,9.155017586307505,2.545216455475166,1.190079628460529,-0.6225245011516287,0.6101516127948389
0.002844926569353376,10.121391535115972,-0.26105633538653716,0.056277582704043566,0.07078620179670443,0.056840280955926074
0.6786401997567245,10.130683799077712,0.9040099219095046,-0.156677551989483,0.2400470683658241,0.05967718651847864
5.252192710985934,5.316137932640997,4.788080345363965,3.3511769768304513,-1.4458874241930455,-4.89173413135509
-0.744445609707685,10.038637298195484,1.8456824550658109,-0.32604899036726465,-0.42249560439046285,-1.7246625079326674
0.8173124588809775,8.078139956038637,1.6348698360579017,-0.6627766054973334,0.5629084798964537,1.2051375311087174
4.283529024425312,1.7846730995674225,5.916392818896301,2.903194670447411,1.6687428395576374,0.7312221466941351
-0.5850185424164511,12.550934063086492,14.92230040889151,7.313707153139146,3.096659904650008,-2.256077886350611
1.5701551804875047,7.991705694241078,4.928263762308688,4.303937646405789,-1.479367935036569,0.5665450589644556
-1.2894225615449613,7.001811387616366,-0.3481737711323607,2.4095412440851796,-1.4609738992402397,-0.49068469982422225
2.0071130581810506,9.758060499125483,6.43196579394647,-1.892378122326031,-1.6679308008116802,3.4870114898401594
3.614728699867025,9.702205025020353,-8.913733207040348,-0.525607131930371,5.678040347734862,3.388290165780601
-4.0730979029123064,11.369527971425644,4.696531403342459,-0.1977798148213199,3.8495254154419714,-1.9808613903667571
9.766265708199766,8.22577299038333,3.5372056281710966,0.5866084989866769,1.369723396008947,3.8607975907404644
-1.4122462764930968,7.851481257976083,1.123403668629029,0.24496857720372353,0.7124271555816091,0.39128306573047955
0.3621957069121328,6.601419163181578,3.7120662888610405,2.799759005214734,4.92435353841142,-3.0255173456007025
-1.1130300020225112,18.524266335560206,13.629629827602061,-4.032148387360732,3.0255695122508635,2.075985312971587
-2.0875279638374256,7.498766561700255,2.958710702484808,2.3390306719684695,1.0382815064641966,-0.04723714888214137
-0.7841973593376876,9.609105339300001,4.304783853496277,-0.9863141250004945,1.1256214165711567,1.4835270925055917
-1.9309017032040798,5.7847425541099495,0.3833610515735537,0.3996100005369916,-0.1820270567571326,-0.49663877149807834
0.7357322913329025,5.012838270790391,9.409904201314035,-2.9656270790533696,-3.5273928337504286,-4.485027143849543
0.1588036719127818,9.467483705353931,-0.25542823969936657,0.04032816149857821,-0.048027117910434465,0.005663470191564727
5.160743753465624,11.52280827849164,3.5385347962623177,5.056811815767305,-0.17930818178125962,-3.4974903268277124
0.7595487981849042,13.485284333093368,7.039492635749022,-2.5441810718359132,3.4893981158760834,2.751052672323451
1.5272868895252145,8.409387650992807,0.9703332224835555,1.3353408797212838,-0.24126889981651878,0.8191048256505358
-0.02762536236915958,9.87983561529235,-0.09391237262651694,-0.0018697718848842068,0.03792361446442627,0.013886187071053692
-0.8273753011232692,7.290665007239259,4.244245840459973,-1.5304737427705635,0.8971430363414143,2.3846254513781777
9.481152011351503,9.789344621351102,8.536576955657091,3.419408967199258,5.883670153998809,1.9473130291220913
1.2110656525702777,10.766052844879257,4.912990063331722,-2.7352591675567464,-2.272560697999008,3.3536112679869436
4.835182367429806,14.441521183889925,4.5621145508080545,1.7828421911721755,-1.2977955242170172,3.1090219131553427
0.4797638314630588,8.694397958714255,2.2750393785675267,1.5018306738141192,0.12655747223960967,1.0466623294320283
0.14982345044170603,8.440251377822689,-0.10848873190514352,0.3869671126897909,1.6384035428292134,0.7274052589830672
-2.1171794065119625,6.294310355422708,3.1054860648185647,2.221235405166426,1.931792489201537,-0.6696402279763096
3.82834168912282,8.874770498102418,8.887061202183675,6.358909869094964,0.08928543616292295,2.1700496512970036
0.25976823147069883,3.790800901594091,4.51081644653114,1.1139297764679434,2.164245917050634,0.13825988616282325
-4.94631419852787,10.85830566467041,5.413493550752687,4.4624706540317955,3.446983077535452,0.9320247142214921
0.006208082031023278,9.887454408834044,-0.016484127498537674,-0.004205259218410033,0.006623920531962897,0.0018155917952237866
0.0025698529036394945,5.5463824849080146,7.668972863561297,1.637025202348545,0.6561228967483027,3.24485721569176
7.45460689940185,12.883991732081899,1.6671576500987282,-0.07305383639735874,4.947431638094779,-1.1520275790790158
1.8316796464741811,10.610580366126793,3.0678655268953525,2.15463110166505,0.4667179885771631,-0.07007865264221769
-1.7045986937151874,13.558294375998884,4.039686806910074,5.997642111961529,1.275323487583263,-0.23561940455873076
1.2264104182579476,9.736732090007418,3.3624995045279324,0.6395332711854196,-0.06913392428321807,0.10976189610837817
0.6555888695397956,11.265654149010945,0.7708876611177846,0.2848931055527384,0.5950376156587496,0.6360771840049075
0.37641060281641975,4.058150885487766,4.975408094230319,1.360812211478473,3.692865267452441,6.2268268325636775
4.323704673222107,13.263999866074002,-1.3700378038229042,-4.070224931902862,5.161178738273032,0.8163521944406769
1.1480362552241608,9.620836064950408,3.773997238724843,0.16186484814733787,-2.3954660105869188,0.9367215634469693
-2.6931365657156006,11.760650601966017,2.7131325980073915,-0.09782155278809312,0.1973281559129076,-0.6038903864377587
-0.9534343937027314,8.453341453905503,3.8020345162003126,-3.13827599985344,3.1464059691061275,-1.1506291956226855
4.470115541563154,0.9975518611805114,7.3015952551676975,3.6642847791002433,-5.159377185943818,5.06867118963343
0.9632254507256564,7.967355150163028,1.0203802757917382,0.8233647660821717,-0.45413448930659817,0.18923023096357172
1.224644344156609,10.065064678432417,-0.5386294795001398,1.354291659888129,1.966261221900175,-0.5534163172524762
-0.6057425304511048,16.626501411928096,10.120029844495933,7.660883906593184,3.6168405505224666,4.338304526607724
-2.4409613887849626,10.259427106866058,1.9316423277158417,-0.6943828550588886,1.6926386571970493,1.3043561271954884
-0.09710719653038613,13.801908584964583,3.069636583549865,0.23337497134965218,-0.6426936483350856,-0.1123431699111942
-2.6804006290822278,10.480823707748193,0.5144929383359151,1.5199607338930148,1.479424304266966,-0.16098786199078108
-0.0853247829429134,10.253699660667857,3.2665719890755613,0.9304688431800993,8.461454226928865,-0.6171180617897463
-0.2984360533491953,11.572440761406636,2.7488031595724207,1.0498419410557696,0.9136380598467029,0.21512945369128228
-0.06877820931404331,5.621965027546707,0.6947476536809463,-0.4563369263882643,0.7978073242859534,1.76463256165461
1.3491374131456033,8.84339704049853,-0.9407881672037428,-0.3530794714946448,0.4411540070392535,0.3988021843813164
0.4556409305897021,17.96255522055552,1.9546158207767061,1.317979914213661,1.130042769585296,-0.9739212821172027
2.3540834113483684,-0.7114752018396739,10.468526963482399,1.2809294562379103,-1.0842410073980617,2.980164140253036
2.289230873683931,11.05235373914554,0.8891362937988294,1.3712143381348874,2.1786224190021963,-0.5477931950068489
0.2759746132806506,7.709997635036311,3.5706024938488854,3.8337499253880023,3.851203931715016,-3.1231842519414537
2.0881225818873337,6.069134717567789,12.212131325105712,-3.416269117659816,-2.7929153761257473,1.6811753612033493
-1.1115502786218106,12.435844140543841,0.8740226873251489,0.6703475283126307,-1.617395709266321,-0.7252813872576285
-0.9758866813937848,6.078026392536115,2.231563081101297,-0.6426422335019659,1.413750423275936,-0.15682831521183216
2.456595702898735,10.400467084661662,4.0568651091189585,0.6164169321139515,0.14371609705841548,-0.0643721228864631
0.23877102175990725,8.532558175928203,0.6323213751220413,0.2202857515088374,1.5992063840079485,0.4091252252472521
-0.20534431720369622,7.717147090853648,3.747032072426634,1.3419113591883058,-0.6851699942893972,0.39684271356677037
1.4158470817416564,6.826424649696669,-1.2882512595608961,1.8508078379631347,1.370844627943014,1.980332168746312
-1.5843164766158226,9.967872532459637,0.9006557601747951,2.283950600340674,1.5359914202331097,0.5966272321777579
-1.3903202017883394,9.356694384607758,2.644499711041806,1.2436842410223645,0.6663510219228613,-0.2082071701599829
-0.6907680223822712,5.962206016900445,-1.7717278067346167,-0.005371706222701,-1.4611472426877543,-1.9983538096749012
-1.2371337850327242,6.756332754774044,4.978314566385522,-0.8738575661821728,2.944368694441199,1.9763693794478572
1.1350197661701458,10.151583494812142,1.2036041919277816,0.21549600423089307,0.2765456114337438,0.044391540611670166
2.576385929529239,9.086125756699836,-2.9496948361168007,1.3908810100016427,-0.09720489535869259,1.6800586756967477
-0.3734013192002249,9.866125505993924,-0.20824027631013498,0.0661303329630141,0.35194206839705866,0.07320557705826375
-1.8093929296198545,11.627686588465773,0.5344867096244632,-0.17962296379779996,-0.5097227313234083,1.2315466290321337
-1.1763132368904983,13.95938615119798,0.8609747228145375,1.1665257806434262,1.1793890227471033,1.2539405545669629
2.1496206623948457,4.335075967272385,9.79775931904415,-0.641777779519161,-1.8754804116160737,5.408388479788116
6.037248823616647,12.542131815480445,0.8398880142750551,3.421183579190207,-1.36213648384298,4.485775661956595
2.0048818920258236,5.467210263475928,-5.159512324962218,1.578794175698793,1.7076192275403241,1.2065308928941012
0.2671445783240127,14.610790000070976,-1.554045270691157,1.3674692687394296,-2.2986798366277514,0.1192048962003236
-0.1259214115353733,5.445751392728669,5.43882613555489,-1.98189678483459,-0.391190457471311,4.949776527626277
6.056768377926841,5.88417843184153,9.754422379592977,-1.6315281291895465,0.7864298001757287,-1.5878263820076928
0.25356731700402096,9.466476945543455,0.18489934711265232,-0.03896404798813503,-0.02377781689254432,-0.02428054218813098
0.01145945138001395,8.268614009487179,2.13215641230736,-0.370407750417031,1.8503905086311219,0.6300291864360325
0.24114675531906307,15.081363727536587,2.654236412840956,0.6791236203112667,-1.515397595873122,-1.170238395895932
-2.1485562178685114,6.0566898273340275,4.527546761909726,-0.8417254006085979,-0.5817357541530948,0.5756837179780746
-0.32632555125458734,8.548089748643495,-1.8976423286890516,1.9334819847573272,0.7865334050339453,2.4713713084868987
2.1815751028904637,12.006883273544744,3.07926118800475,0.9577484249769943,0.05217426956136234,1.424353266146404
-0.40718604231895755,9.321199079662025,1.0226841523522134,-0.26362508019771774,-1.2091514525658853,-0.32866147232427917
-1.6449511248019268,9.99808678881556,0.7756268451513573,0.44917045108355885,0.23071250120594927,0.4706503686391497
-0.2691830602426003,8.125553725871898,4.030480497931475,0.974355183972305,0.945127149490495,-0.19895149029750403
-0.9663167556637733,5.943369332504263,5.258607357625872,3.1613816422042853,4.739184899930094,3.3698892212831133
0.19431828691037656,8.66362978267432,2.741624100659895,0.12285174543645677,1.4388262210781142,2.015056007115166
0.17887546441235957,9.691874907730835,0.02361398091660317,-0.09617705161494469,0.04509433332080626,0.01766721938916508
-0.11269453665447177,9.788430791732905,0.16321042289489582,-0.002726161256294999,-0.017054825786407848,0.019483726097167763
1.4604692905005674,8.844400783941422,1.8994192607122617,0.9121837144609803,-0.9032333927243832,1.005673289111372
0.06153887825526397,9.798051489883683,0.02698493825348742,-0.0004061906359433103,-0.0005766172349384956,-0.0030408808266156645
-1.6598909553203578,11.437092876251233,1.425508369786653,-0.2013039232656626,0.7894740569869596,-0.22849700861117372
3.646680356022661,6.744833435041849,5.762725013916649,-0.054127024096419785,2.2992239051253858,4.1097416724134606
-8.663242595922434,10.37252996401389,2.1692987202405707,0.3785170410022878,-2.0694828528546263,0.26266592859148497
-0.8281255919196635,8.177639237747321,1.1614461517432166,0.24632339839608058,-0.23089836351895054,-0.07212873697122424
1.7066886871718874,6.32333679793323,8.608671303242492,-3.4849000450059844,-0.6387211782682951,-2.2618746749266743
0.3107931517599405,9.274951661772656,2.9257726304884453,4.135205525533275,2.360983860237613,6.373525371094815
-0.6717205870849512,10.736514258661117,1.9626489016776991,-0.8933641310782112,0.5300249820190956,0.4299374779088563
6.652566631607682,9.537962158228124,13.141856544844682,-1.6595116396623264,1.7983286982761648,0.5801328507963264
-1.2415954238376066,9.342116067628924,-0.383735697727289,1.623726590304849,2.5194506216439434,0.6263800804798618
-2.2179836374947564,8.164909062685895,2.003321480991676,2.705506454046388,0.8915632118145174,-0.21466215366513286
1.9095065341842818,9.749288661263739,3.305680612338638,-0.6146115276709054,0.44616251855310884,0.11457263870753948
0.35466177746149175,8.675043539088888,1.8249537807869636,1.9879369422521196,-1.3658635552005187,0.6207867563245668
-1.1520658386049258,8.221745205873697,3.641103429325511,1.4547768161831207,1.9343989606429415,0.04424975741942222
-0.5856411139120342,8.782746029709537,1.8710587441956066,1.2764540858733024,0.3210872536475534,0.0493274013685876
0.08674579486366679,12.785520349233185,4.368640699528118,-1.3797631410780902,-0.8337155470091151,-0.09546804848161061
0.9987285323856823,9.301827800068882,-0.5680614017474257,0.22393278397524763,0.16293711998143473,-0.6153432001237955
0.320336549882717,10.405912327700715,1.166396792623067,0.0334807107169023,-0.2918130268758955,0.10661891980092428
-2.82237530256077,9.820191898094038,2.1808955035260666,3.4681801789516022,-0.33353442584416815,5.147092243840713
-5.874278486292776,16.531713103511155,5.584051592629434,7.105597871106429,2.5820168384123967,3.0389535337052744
-0.4087740641502434,11.692657489811026,1.109043098990127,0.09910802130887264,1.6283575073870364,-0.3505821826353511
-1.8661996577817335,7.404875270288594,1.4388531228608523,2.0297534851892007,0.47255807266117644,1.1386384499146414
0.9337593011493244,8.703404627417854,-2.70589391181928,1.7273715839112853,0.6885888316929701,4.026083542017481
4.154883641698761,2.745293517287908,2.7047530948963754,3.4497222659584463,-4.550993280482366,-3.567793757117161
1.1264138216984019,7.545818225361241,2.3422502332552346,0.7538792852549465,-2.5485229869147417,-0.638340139050956
0.616763421439064,11.589944377853048,6.9550548392903115,-6.500704008100874,0.9375663156204097,0.8332980023284766
1.2449070715243196,6.819292372922977,0.7334176177449763,1.3258388147299123,5.163360297800597,1.9379053412981526
-0.012502066041703598,8.00470748722918,0.26444378335998153,1.1284736971316098,-1.6995805160127153,0.28106828609345297
1.1380920292057009,10.590076624262394,4.348103440940621,-1.0575435419734607,-1.4339991813050326,-0.35146670627525745
-3.9885155498717855,-0.2850278469269014,5.828207792927678,3.0815659716353627,-3.51655839153244,-0.06304499618283677
-4.901924659112781,14.95344315519985,5.431599476782883,1.886040850032467,1.8627450763132922,2.170017502379844
3.0766213760923016,7.853765659157451,4.716868407536967,4.565134006018367,-3.7265478645703327,-0.3291250670534378
-5.595069287191097,5.9483830422247035,6.765015936412366,0.6323459236516128,-2.283138917650513,2.93110670136458
6.25924985570338,11.83363227750367,3.9372567117692268,0.8139205775384564,-1.1122497746757443,3.307999394293589
-1.1024104055201347,9.698811047735537,5.384014633676858,2.7627359357592653,8.417856084033131,5.278652721899544
-0.9392814687563105,8.256744775986032,1.2754631369837544,-0.028070666406398936,0.8105405608696057,1.3008698173973714
0.5548371855694815,9.564653063706283,0.47479887699056,0.009715365740401466,-0.1042922016100011,0.09676368814899915
0.18738678857681054,9.626969335147583,2.6938505029335973,-0.40028179623665705,1.1588207727895807,2.228958119433428
-0.6454811499687791,7.466771832296836,-4.347856481120273,0.6736057521824232,0.2749690522956768,1.2958243059233705
2.8816146481349216,8.467998714784663,1.1699313274447034,1.7389921443303369,1.1123401947518239,-0.16004083856755397
-1.2171912926972026,11.216797783936972,0.8494923806565853,-0.0206214229061229,-0.6311886295539049,-0.1627506606714778
1.522233803093672,8.404799656183116,6.511272800108667,4.423083981511285,1.1430981665425568,2.126561261989186
4.8660783107493675,10.157235950463015,-2.1578543748539296,0.6105796350676567,-4.280543696067198,2.644868898168001
-1.8873968242983539,12.241747769308478,4.126188829044547,2.73650577905999,4.427511358340346,-0.382838991008122
0.7133447002442951,9.666562555667715,3.669722229768464,0.487456336226871,0.12141842946637771,-0.6723799052454951
0.7032443842903612,11.638308469345608,8.300615677537575,1.9986547176982947,-0.9208142819332474,-4.382433115764977
-1.2511030420341533,6.825867276127936,7.180085363301152,5.737843641342424,3.7164671297006056,4.081642905088534
-1.0875176145127279,15.503434150439983,9.823875084166051,5.075263971656326,0.956019721451954,2.9442887480985185
0.4282780262349708,4.203703315164195,15.664721363124672,3.0551856737011995,2.2688178094939335,3.325267727907238
-2.3607835239143844,10.788814430723942,1.2439869481428927,2.357008425176233,-0.12923911029102042,1.6488216493053223
0.8855521117102912,9.881700186545947,-0.435859732326916,0.3124314105920164,-0.4514702922086071,0.10636216325324518
-0.8897697095791268,11.559040933730707,5.028811786526095,0.0657869561941748,1.3167567224395273,0.42212683784379246
-1.07519994930371,7.295955560016083,2.562696224344843,-0.25748232577337526,-0.35077911468726264,0.5130590211982795
-1.5417688261848295,12.016885921725951,-0.8917575938359326,0.19223159885387586,1.0867657126950314,3.337578027686119
-3.983805638256146,10.35630882305785,1.7364094531932548,-0.0012077168666098093,0.4886192354996825,-0.7760097715141259
-0.9532707421771385,8.49122870106577,4.4191886942061736,0.06068234721208554,1.310876980996663,0.6006564569289725
3.2742322856226873,5.6130973065069085,-8.199396540974057,1.9601465626424661,1.9056041336153324,0.4308502758729831
1.5703730347504696,10.857637896607415,2.375929362609769,3.0026480030487743,0.3789673872170898,1.53750583697939
-0.2552732680655081,11.589329805577322,4.141459818867483,-0.07448851206306151,0.023822010575479224,-1.6121467085111738
2.8597919188144765,12.038328392571373,2.1262601342215803,1.3260505171934462,1.0262473794140767,-0.1276183464098123
-4.915422058316573,13.28792120278155,7.853413817243302,4.645698453723817,2.3129421437052424,2.5332413184639693
4.9096437868235165,7.168049814667955,7.0128552816752645,0.591062255690713,-3.760918426106355,2.180037819020302
-9.25060547956562,8.974891615297292,4.146006014999896,-2.578840403134592,1.916126415473975,5.539336254570234
0.4859504055631047,3.2900847872419368,8.999446680839275,7.887257801065889,1.4188917699162509,1.3133392932757881
9.881904589671088,10.509796670784134,5.770769128898108,3.2722378733565765,0.5068211785957792,0.38919639360347724
-0.8933773798005309,7.336748990649638,2.619249638146648,0.634177920026328,1.2994843351440983,0.6181882621917509
0.38096335620165034,8.6303588667204,4.831709430568152,0.3622588298812819,-1.7770434825243586,-0.8710737345473438
-2.9640493418573377,4.03662594070248,2.895937036076349,2.5150473862731153,1.1846396837666688,1.0903489190426563
1.075492729406269,9.906156747317194,-2.0510802229388023,0.706069504114945,-0.7444108599212131,-1.3557899869436423
-3.350591638100197,9.02724125780922,-0.14582905572190086,-1.4251762071773972,0.24267437862776975,-1.6903739663950912
-0.8874910828522389,11.122657030202637,0.3734180295990801,0.6097865989223614,1.8691412370784846,-0.7423489090097699
-0.34833541524757483,8.714672176567586,6.188412639435328,-0.6364428605867309,1.4666250519383486,-0.8328349679707676
0.3263060762147298,10.3252748399421,1.3738730118856535,-1.0893049200798397,0.6971465422995369,-0.09597419383633382
-2.161187502787797,10.007384863405122,-0.4090961744052648,-0.6256440296343682,0.38422167091939186,1.5096005443584373
1.6692118078296976,12.652333119935559,4.104698543507327,0.4454996268610509,0.8135440402233536,-0.8391491662332098
2.3484109162336964,10.759742229238705,2.464072456548784,-3.4727650836056965,0.1728734914711998,1.6006826919324761
-1.7945777486905838,8.926185222014427,2.003107944703215,0.1490479162196015,0.9632092323253576,1.7055627367899944
-1.1226498593247194,7.610906139205987,1.3951979401869488,0.7404605160235291,0.28452726512951554,0.6377342453423329
-1.9160686909869076,9.55206378945195,0.733242297935389,2.483255280180907,0.4932881462134291,1.5962773964163177
-5.717915262440507,14.561195631849255,-0.5060450404633174,2.7040662856048634,-0.8819246147591167,-0.25814352398173446
-0.41757126478721457,10.044636468566166,2.816030455367749,0.3840403382869636,0.5104464394557328,1.6335645524241689
-2.8525338275293093,12.383363758752992,0.5158280117490994,-0.15375297078743588,1.4144976339610706,0.2638908750219518
3.183364249988578,11.135719148474621,0.5031835277378078,-0.328154309028313,0.42782533775847165,0.9652725387315757
1.4924453541346807,11.145827894795502,-5.590005217936941,-0.0073584895913394455,1.1958952679826398,0.972577623455488
0.7104921839508671,9.266892809634294,3.087631662525565,1.3139437424081528,0.002932190405353252,0.9039153421112729
1.8276812494310568,8.73940765078072,0.023017394147766046,-0.2578203349184319,1.2018575347174978,-0.5951476264281237
1.6380274515881972,14.356261685144961,1.2435860444584481,0.8716135517634347,1.4790012231258642,1.2786077638312805
0.7039845160905813,8.86391643387947,-0.2985275593806195,0.32436042952468225,0.02224134591291896,0.2330630694397135
-2.2841474253921756,9.060865350229346,0.12645448019572259,0.02647622783257203,-0.1257917409599737,0.5765012673133693
-5.866220364524285,20.06619658758716,4.794770082897626,4.0841201167389,1.93734288405311,5.067116997553305
3.1499883250776914,10.744516451684726,-0.4955827676525719,-0.10116149782136297,2.0943610709687075,0.2694948417873137
1.1771088204592515,11.563424848692907,3.705726268468929,1.3406221683628647,0.7087611172446237,0.8022193936486366
1.2811720039584629,2.446347346076318,-5.011254214774619,4.604706403081039,2.5643727018204134,2.3135831352488716
-0.0961117305544486,9.710482601149462,-0.09006018472039061,-0.00588505731315746,-0.0038367440519499704,-0.013528850277976488
-1.1763823069474428,5.7485448369704635,3.329603339433632,-0.13211583364209745,0.18956452374645738,0.6364539543412736
-2.8085023436206074,3.7123608421996472,2.8467418270198106,0.7873741953300073,1.6022707330685115,0.5928872104276626
7.090661865001453,8.862762662592207,1.829405036113613,1.1420689690186767,5.702502504326844,-1.4124205497867863
1.8004820673061057,10.627194852560956,0.716143023390249,0.5877480862582718,1.3042972151616818,1.916453220695392
4.7864024765443824,15.471060228328362,2.0938920461723223,2.342601786028144,-3.4285623415077033,3.1924159392022227
-0.07574708744644242,11.217929909897908,6.776825805964414,-1.7928545263583389,0.6512660516274182,4.526374625868868
-2.881289320525455,8.259892313103922,3.333609996880373,1.222612665637119,-0.6680783915127466,-0.08304304097509563
1.2935293585863328,10.167710488533613,1.235216222578296,0.34285884867399696,2.0705000265547335e-06,-0.13496299093541397
-0.7049711228582782,9.811146853482402,3.0965282841457737,-5.263172731958568,4.797500803292518,1.765372640822077
0.837514899812703,8.153805905945877,3.6949913046597334,0.3997520154702147,0.09605122436484115,-0.7199958282399541
0.8576348453722376,7.48141069244595,1.070014965278388,0.16378613954529578,0.19895523142684207,0.010357750213861872
-1.2502029725049284,10.490951988262758,1.793909494471841,-0.2214530344697705,1.4689750890119901,-0.41104914161872785
2.0308943427904182,8.805427078022198,3.958166991661783,5.870043958794672,-0.5297356895003271,-0.9222968632059603
-3.9135574979784664,13.996577476892142,12.095452643655324,3.769434490055013,-0.6599380759518869,1.8164341936104746
-3.6965849707298744,14.818586709174344,1.7861812690464252,0.5630892581424936,3.9595237294600167,2.003448493935101
0.4919817375684483,14.00086894890061,0.8666245710601463,1.4850109615082072,0.6922771028087606,-0.5794010431365955
5.399728004273982,13.579113012883631,7.229507244683932,1.0318084208492249,4.063094251116021,1.5876630280738724
-2.7160409098998346,17.61537068690355,12.779927927477797,1.582940738112017,1.6705736589379203,-0.10913663965558018
2.6611177933544554,18.32771411488002,5.88120300978907,0.07242584687096354,-1.3358568637908488,-2.1260814619375012
-0.025327586182096466,9.976846033287783,0.888635013828601,1.0698413056727438,2.504155600895079,-0.9658079289378703
-0.6709201729740072,9.790759512139463,2.4607975595425744,-0.13592342816411884,-1.5827474604703515,-0.46248561055953086
-5.716976290099613,14.601203687544338,7.45769913489972,-0.21816077549703206,1.06566754699519,4.065684921291774
-0.024419263957867247,9.754191543940887,0.09713832924136791,0.0034203820300901717,-0.007106260950730916,0.012125180135876726
1.6163915981356702,9.65247849884326,1.160194419731396,-1.0258820019855763,-3.1024754862900403,4.321608792120525
-7.870303337471859,9.2089302931869,4.5078860471923035,1.3217982590739201,0.6429596281131418,8.730031619555255
0.3013452617994544,9.192910182245786,0.8434022553083453,0.08519165149596875,2.5219818598273736,0.8416168681506985
-7.532711250023679,11.769371236615031,6.367126501308713,1.8866755337836276,1.7712138523059235,-1.7182083209678796
-0.06489197064754137,10.258515477666254,0.772014183917952,-1.0393683918231227,1.8289334272693434,1.872277933173952
5.669231583026219,2.1685486439518664,4.332924609612794,-1.138350545754066,1.2518883936010134,2.9554184952410707
0.42184758895382324,12.780520536004564,7.405113586486645,1.147856274302972,0.42858776279235533,1.6006227913428392
-2.7912492676153726,8.941064742820814,2.6372798265606634,0.9933972977523625,0.6498645047718896,0.9363379389678914
5.178311911268187,1.0395860006426467,-3.2504971406755203,2.998558150454631,5.673172192024703,-1.8909034350633203
-0.6566718830363132,9.591291257182272,-1.5338928731521024,2.534214373455658,4.773146370905698,2.6977458335895945
-3.263482801876341,8.308997880365785,0.7106354804654686,0.8868731672616075,-1.1579292740281353,1.5029208570549581
-0.5355550766754001,10.520466131083856,0.9182064430680625,-1.5697964754607687,0.728037790344055,-0.03736663660823192
-0.6617250178912112,9.563335003777464,11.410033476361463,0.9243367134032765,-5.02624915912938,2.4575048129161394
1.3953606622820387,9.756950156733224,3.3131536577172938,0.32828199775609007,-1.494115877455632,0.7241343051249078
0.5279701417730773,6.894150512428952,2.858387309353929,0.8021029790726759,-0.06971680177707018,0.970584256677484
1.1015421267129515,14.372679552905439,8.916746754474824,2.092682449190221,-1.904593852170073,2.0379040885209316
-1.4042323597817417,1.4222521930130707,7.4726065844316665,-0.5763773996497283,-2.627489699320841,-1.0851795206153785
-2.246701656617374,14.505693544843304,4.843314026552237,0.7599866662156315,-3.574473769133647,4.895561154507847
3.8080915561580606,0.719899065602954,5.97700298942473,-7.562211964780875,5.389682806383084,0.7329351270608413
0.8699833546854984,15.33039341329987,3.3650263467646386,-0.8778669588222376,3.5932836870261275,5.120226389319928
-0.06004537772923801,9.623530252911609,0.054421843819023354,0.00024103410351325685,0.015336313266818781,-0.016089736380145526
0.12797170403000604,9.80531159894549,-0.17500849769484117,0.0019609672145812886,-0.00019998500673308898,-0.016812282562102883
3.3767572368324528,9.808740526898527,2.847185063633622,-0.04208858377250302,-0.2686648742358657,-0.6312539815436993
0.3850754995210121,9.100422819577705,4.367970911189925,0.10462281625991998,1.7479739876547886,1.940831353299918
-0.2160290414067234,8.67208552793849,5.032866820152887,0.5895724927628406,1.5863509530568354,0.0968780073040511
-0.7059445189226101,6.6193844373235216,1.3611718531215418,2.9214170845162912,0.10639228726616495,-0.7665088619411635
4.5476294011894005,7.3352713071762095,1.4120673291478583,-0.8240819075315478,-3.3667829311407234,-0.8141367880010058
0.41169284084056157,8.886909807179036,0.8640314353885108,0.10372444316016641,-0.1695147444973629,0.12695970797666523
1.857927916763987,12.31447032346405,1.4438241319397578,0.7829802764420833,2.2675285487600148,-0.6161930105541553
-7.400735059462633,9.196511394797644,11.963130695453192,3.353396091531283,3.5127701553960757,-1.895657651601356
-2.068681634742365,8.092922128892635,5.156577776788027,0.9043264024459157,-0.25726275203001814,0.22523520764028127
0.26097049539126704,6.783692681852855,1.325822434930199,0.026264241768644336,-0.11154482087833562,0.9296362745477338
0.013239909678890742,8.149012273504589,1.1898998894840298,-0.06000625594526232,0.25362998763600486,0.6230774608003522
1.3369604336597314,8.669043065397194,6.297333757620169,7.644177163784809,3.1429544287722804,3.489708885583093
0.3255534190545716,10.250983510726202,1.1883739450765878,-0.12060584604925198,0.13556046887020687,-0.21184304987591898
0.18092118678161162,10.918405504994183,1.6779981878041463,-0.4723296653517688,-0.18208807568892915,0.08641946556463387
1.1705973587067078,9.233156799099806,3.4113520739214516,-0.004429602709091762,0.08660747878304215,-0.5409650565393547
-3.049056850345687,8.343704915352433,5.5133917239204955,-1.1822419740070018,0.24709262499954332,2.7580990843898805
0.6284820074767182,11.279345696979071,1.6218197672011359,2.052916475184457,-0.3917371225619577,2.2702182546328795
-0.2109671265066045,11.017532725601113,-2.197561664011736,-0.993818405360027,-0.7638947304180705,2.5909911332770683
-9.097223812313217,8.987305164339348,8.589495204527548,1.5119438968898935,-7.427329844298702,6.218869414769003
1.4482037719467906,10.759250172312866,3.0535441902216967,1.278932112066742,0.6355521062767502,2.081802656389498
0.009841942709752104,7.799078992283896,-5.103815279149913,-0.6338725959575635,2.0527427977808186,0.23091256997685328
0.9223524142513448,12.969396386672557,2.645071951589613,-3.2961763937691035,-2.890920427768947,-0.342025557206052
-3.353507147988007,12.433052778802809,9.898306317538541,-0.15135150435150413,2.269960606804845,0.3908265273419964
-1.9065103135514576,7.532820094048299,12.597847903225198,-0.23076628964403945,0.35261389149430844,2.7056472802988747
1.6339267188332791,11.224813429456932,-0.9191457071987141,0.666253943191144,-0.05673390279608137,0.8527455432490423
8.758663999174471,3.189554760653735,-2.697538478571606,4.284545713164352,3.6980825130990436,2.204129368752876
-3.3041305550411275,10.886883920845664,2.2791173583526976,-0.6751361052890652,-0.3072961750305182,1.2998797148055274
0.09254739106415215,12.192220722697018,7.91352923116361,-1.1014085530023143,-5.298450954540476,-1.6693898260398736
-2.0713747779646625,7.623423410457242,5.378263629628073,1.2521311393657668,-0.2328771309014125,1.2292709581184842
-0.20978936587720728,10.919342734610703,1.3599004862380375,0.030192461994704434,0.49373186888036696,-0.6795098669477713
2.2663762127966818,0.2593283350892239,4.072536291183141,1.8063864008119226,1.410249150490182,-1.1511813094221273
-0.02002830534363687,9.03239420344798,1.8754334956066543,1.7024291105122968,1.0770819305211907,0.2557307934883496
-0.11180857274232876,14.714434579635311,5.284623598400522,1.0357484648168966,5.541316303708369,1.6626740602420877
1.2421070090175736,9.010362615090814,1.7552252259703447,2.0749859700148674,-0.5041332032165999,-1.232662010987112
-2.5740030130232223,13.607918675574364,1.8896703169939397,-1.3112688260485712,-1.4809958680283772,1.2983322496821965
-1.0682173590225428,10.031428873830494,0.8971662086134986,-0.5082455953613598,-0.1603798763285924,1.272541024267314
-3.315328753111462,10.533948999990974,11.335240414643993,-2.572711826237076,3.7354972062241814,-2.5979208811379726
-5.473039427795669,8.191955981325199,9.204827422758902,-1.569032504256425,1.2770303382157304,-1.5987013549596805
-7.8270847344298105,11.15161043073628,4.833128830471562,-1.0644693818296709,2.87694584974878,2.9100649498207805
0.7938685470896771,8.089034617265193,6.24116093155782,0.9014266816788448,0.7449014738430035,-1.1104696901380307
-0.02150529376599115,12.600153364750025,-5.91691591476122,-1.8457305609236472,1.3095019992078565,0.6403848908040144
1.260074021786206,13.020202446463099,8.357644333091557,-1.5040181418196727,-0.057722290007073074,1.3550663019810611
-1.8005702052497086,8.553709262249976,0.3535813366474567,1.2983929008767192,1.736633745313298,-0.29424301201520575
9.797951906283897,5.581380769348875,8.682819899315923,-0.08622951819251146,-4.968243611066198,6.005487232730996
-2.1491736644903106,7.610723400779285,1.2444921332025949,-0.03614021693921843,1.8020456276465868,-0.3855920931214655
0.004216623940735225,10.035111210306882,1.1454311070344354,2.3859168946105327,0.8470611858174125,-0.8474460915288031
4.691096511377206,16.335285443317535,10.678536528862281,5.244673460815085,1.9423164988354231,-0.3294236147377043
-4.760259528171409,10.599144488509435,6.432543383178126,4.5111421639584,0.43703280735687544,3.5269387602837843
0.7618591267901427,0.12845796560185363,7.6885293712792535,-1.7773006419058648,-4.463323269460614,2.3058378033347156
2.05875864232243,10.610187531960927,1.085106225072233,2.4545734160793464,0.6607555040868125,1.9781758236807396
-0.20262217493911752,11.363925187708322,1.1862562370530318,1.1859785566828767,1.3416042520643485,1.052230500315912
1.753854359506489,6.993369807882681,1.2778764502227806,1.3779583674536218,-0.1747037492836334,1.2299567706421761
-0.30837025849890143,17.813932985700838,7.422924262757508,-2.1253669532858726,-5.8747738477787514,1.5024390933608125
-6.251187686788709,1.625617682408489,-0.1736337838094535,-2.7757067866497342,3.9366565689157875,-4.55699415110155
0.1733905701208398,12.425758595691537,0.5401156368736126,-2.374870778250864,7.004942925043865,5.425349411134865
-0.12571210567631322,9.813689675961468,-0.17277945998441469,-0.0009510075954162467,-0.009950041120370609,-0.0010896235632876317
2.5596566781559553,9.504068190979696,3.1152249256183158,0.327839630344171,-1.2496615589676106,2.0872962363933585
0.3655283867079977,7.273704277308352,0.4660343641047633,-1.2875051088431426,1.6327540293035256,0.11650448010730019
-1.9966670531761548,9.049155490117695,1.6302365653048718,-2.1826411196297864,-2.183410449275664,-0.2775835886650708
-0.13034164684491398,9.8827275621974,-0.07669883514554261,-0.010647485564850366,-0.019716215876717277,-0.0140703527652209
3.220705470899681,10.148815154853661,6.142939524052865,8.325139670128092,6.471805836254481,-8.243797648879728
-0.7048706725218352,10.76333654653114,3.8443270137006715,0.9423837906160684,-0.16815413019642222,0.7416086189490063
-1.2033304943065124,14.836379191204818,2.481915875764789,0.30919484281959797,1.540222793952071,0.6199895701036005
-5.210795969369694,18.70474371577233,3.5230488534941484,2.4190321820151732,8.290256411716882,-3.0567356780139283
-0.5889101626163745,13.467343489419784,0.47448390361326886,0.3409120594118046,1.4698216850076669,1.4290129302171355
0.7281053152196242,11.00618866738664,0.9149635620648604,1.644980338137168,1.400885600592302,0.3864849919651506
-0.768656803228738,9.241358170970042,2.2318479618777083,1.2760326878915729,-0.5456289389445916,1.4277081090601536
-0.09794732246009169,7.269218681915479,2.6590041675763643,0.4971125057489509,0.4712305147432947,0.8334091451064682
-1.9882092217191114,9.182494711955913,2.505070887289058,0.9909762202216296,-0.6209580477269034,-1.8619578082923502
0.8925673634670864,3.4432587268487156,5.932418976048754,4.831494197992859,4.128476201764386,2.8203976064290552
-0.17276016877240274,14.02724364561195,6.403904334718472,0.222896745236546,2.9745312421897965,5.720083839121752
2.6438347260383983,7.751896942409594,2.046520436852762,2.8039725243371025,2.2622723678947576,-0.7281512939104888
-6.804360750597399,2.6667217886533,4.722924611636687,3.922882646701389,5.950273551300921,3.709360189131811
1.2605419395239332,12.600535156416708,-0.4123764059913011,-0.9844761371851667,1.256646821978785,1.445958835713823
4.426339485633434,8.448112112552154,8.177981763059925,-4.007285654209215,5.868033044689344,1.609184155926315
-3.5823113444990646,-1.3828915598550076,5.349377894287568,0.33292750971790563,-1.4646523640382427,3.53143444874397
3.4488021092435535,15.873422237731242,5.301341655833101,-0.9281340790048018,3.3196974116044577,3.0174408637337495
-0.3799488720202543,6.886095982053323,2.6855660283772096,1.6676791227203982,3.342652721770646,0.6483693779853792
-7.536544175678925,7.012468747123031,9.306667512943356,0.3954043176648385,2.8962454733556826,1.6284704297985302
-5.588717763889484,-1.3167300161673197,1.1547635497487656,9.26984456919464,2.53648107361557,1.5326333275017208
2.2938353235786773,13.74223185756585,3.487353552999487,2.300456252111685,-0.6312023207200279,1.8984630851448157
0.11574158462795162,10.101042415494442,-0.11380403331462668,0.008954736254375461,-0.056279596670733206,-0.030074812567544785
0.11670732063141681,10.06434727252036,1.7655216802204938,0.3530540179730328,-0.2809301383543616,0.9112593884830398
-2.2999669671909,11.23724753943927,0.6401995751917946,0.5989276512654121,-1.0173596756717027,2.8094475883326884
-3.5643295579394954,12.469611981600973,9.989589207092376,4.282817170840082,4.560363112511542,2.8356468079507486
-1.0485044830687316,8.216055604698793,4.6923381968470474,-0.6657996932393833,0.8008409529398651,0.5558420168251547
-0.3656023832717443,9.208804894030546,0.807483367649853,0.028313596101140065,-0.17504776803384128,0.14781038989610443
1.36038146367857,7.605034362403556,-1.3962642019296,2.2879533575469377,1.299150187912716,1.5234200775742823
-1.2742054014737476,8.308670200987814,1.8416351055672946,1.3931115839911716,0.8446015589340954,1.551380139267234
1.4943653060269773,8.31367431607282,2.7382018995743658,1.7294882632297124,1.8519049164727381,-0.7788097116327577
2.53766482919797,11.04023850124295,0.8750360778749418,-0.7268250163598644,3.6447068581724933,-0.09578144719848636
0.9851802879185526,12.617016500651768,0.6766895327584836,0.2664717106865835,-0.3505026701819023,0.9220453488186063
0.02491018143376956,13.552894427519242,4.2390376410229615,0.6299071448480714,-1.34087961687981,1.6937167018628598
-0.009416325773954872,8.024612706315743,-0.8318905454060279,1.639688409764399,1.355014131356223,0.38528911068728044
-0.5820191957438561,10.601032851101237,0.8740655008452487,0.4265819959838796,-1.413070971415987,0.46025901624886767
1.901686499683228,9.143066193031656,3.7950759941189336,0.36318732969053735,-1.7307522191368103,-0.11289489684289378
3.7077584119248854,8.791744058187875,4.457294528295563,-0.3093524073657341,-0.037584287153157314,0.8117572664013917
3.0611061885706268,20.923343501787002,12.584272680258863,5.237979261524822,0.05236087245674437,2.16965446171499
0.6377785961626523,10.303278605546378,3.9061621016491026,-0.00371066114864127,1.1340834337325987,0.31231230125702236
0.7468134855843406,8.664761735347643,1.5884942757417644,-0.8801605135449306,-0.381268632106593,-0.03351413287857419
-0.3693641918391576,10.795946435436619,2.8919237604374914,-1.971553528596456,0.7101203182977912,0.3352495819071273
0.0070166674812006105,9.604132571623898,0.06072566078713137,0.004561767676768344,-0.0017460986044187604,-0.007144839364539103
-0.6087458287880119,9.365091980260761,0.7732388592292647,-0.392464975606011,-0.6794285596780085,-0.5629260074452391
-0.9178827097207302,10.590638673458065,0.9233841695516958,1.2129035405391657,1.5050122402645927,1.447861656192237
-5.653654359735263,1.38422962875015,2.792017942222725,0.8617331244027306,2.041750015469639,-1.2563475598939555
1.2569204024750693,5.755044769619264,1.8972056673156066,-2.391492891373214,0.6207738587149256,1.5367096039109687
-3.269979009533467,10.972915872212441,-0.0545749247963192,-2.661823965088404,2.5939781716066275,2.439751034701121
-4.138063038589131,5.722632112915916,1.6784652573132637,1.6740162864851529,0.4611541870661462,1.818797016872501
0.9619524348206319,11.679734764821974,2.8849310777764234,0.06291428484992917,1.8530702923529565,-1.0360533510476186
0.4059775538582998,7.254055762591264,6.412331047422792,2.2606116131894716,3.2522723631649084,3.4162457180065973
1.6828960653094798,8.247600070570147,2.3039884570126414,-0.5030654464667048,1.5569391876816794,1.95309363745246
0.07923124142650177,11.576188678648972,3.6749867126472098,-0.13251669982911574,0.6460557191732689,0.4395958327134186
0.16168772925828268,9.448460231583535,2.361545417148968,1.0373723612317982,0.21021708982363294,-0.8211679650333459
3.265558677921845,10.480229876832471,-3.2876973131435703,3.5996234985284663,-0.3496461201084615,-0.7669862637506459
-1.4638177464039241,9.497995011342779,2.1333663414660613,1.6262134529338523,-0.34030560568140733,1.1641063373216953
-0.4604303752108614,5.771889527939759,4.227426810028541,2.0790868978442902,0.91561625784888,2.283374135624659
1.057362774408133,1.9818572089500774,5.4407226317486055,-2.6318563525207015,3.94090792358892,-3.1124389211705266
-0.36443702884361456,7.965321971642382,3.8000302272662028,-0.12074894128053926,0.9926796363027373,0.5210612332273649
2.125364330870147,11.814585467867534,-1.0912719301777312,4.938485916607613,-2.3536115770500246,3.360856977787355
-1.3818452742617044,10.10851020980939,-2.830438393041923,-0.7582838573530963,1.9714342161227951,2.828677742530754
-3.0006679369941267,19.039635193716045,0.9173558517687734,8.070704231677587,3.4267455236304207,-0.42674634736923744
1.9078758550955683,8.025663720593503,-2.532576238196432,-0.15697494140868407,3.304467817274113,-2.432081327214002
0.22003735372798558,6.845417725145695,0.27235050705973407,0.5732507498786766,1.072468813424821,0.3344597498587194
9.294622071407055,8.136451690158829,-1.800814698290612,1.191185346929334,1.7788421918974833,1.081510295054628
0.3013290824436444,8.980376236205,0.6998238245296226,0.14269102718111154,0.32915719969835744,0.23151822482232115
3.392613278735639,9.59519284006094,4.684395574396065,2.8469541162524417,0.26739790375523986,0.6088150522423865
0.17818198379787312,4.572502938822162,2.7531268847397503,-0.6341905958726608,2.941018031366409,-0.8135061251309335
-0.4290226236912606,-2.3712396576326764,9.67208583909119,-2.660944820491906,-0.46926062741844454,3.0475125586886413
6.5985168483586225,9.769060676079597,1.5194446604237206,-3.5233701617781774,8.644884920248016,0.8905001464910309
1.541621726779862,12.414705407698925,2.7338868623708317,0.3549945990338015,-0.7187901297478643,0.05387079228858971
4.272421011224208,12.046120904521901,-2.4344042138027326,1.0650720247959597,1.4972087946399704,-1.3165006471195628
1.4590158193598082,13.041620769944673,1.1337091912758281,2.8441334869821526,0.5769431269123086,0.6704841251980024
-2.3388595994879755,4.373944604562082,-4.843936895114492,1.1432310702973716,2.1544503585054464,0.6723641691362354
-2.7334516601424834,8.844671233245945,2.7558786103362216,1.5082030985331365,-0.04624116507999865,-0.4175726643973522
2.8886355231208976,6.98604679981243,16.399828301340534,2.8902385296226507,0.3154818629513827,-3.8676207319421234
3.7178910727075083,11.287499782942017,0.027298862277366887,1.0346064062536338,-0.4643926557617378,-0.29630403525794324
-3.634655089721017,7.992575156007726,4.808666512084952,4.051693044469248,3.250324187141534,1.24112400189066
-0.9211470193159462,9.500323811011885,5.53269151513234,2.528326703213281,1.6911089134462658,5.682608377293762
-10.298736718688446,11.6755299104197,9.694194406464693,1.5829973823728822,-2.48751142705801,-0.13667911377708908
1.918997951688318,15.258443862913369,7.850238444298299,-0.4849895855796573,-2.6522268870750967,0.2281871460660434
-0.7701859614956691,9.756711262597458,4.091319934646442,0.5135958457903448,-0.23149304154966976,1.7370709973214895
-6.3495852166528595,10.034659171274074,2.975130474625617,8.408965571342097,4.2433726486021275,-3.418939622721944
0.7142158834120957,9.179008210856365,0.7892793427649331,0.1404067767682906,0.13344983235390165,0.16166823030062044
1.4075323550751413,9.632016912552807,1.0783846438725382,-0.906503374803276,3.7387326293266177,1.4741511614700986
0.2642421022516093,8.833533849063866,1.9315073800711426,-0.16097018604719993,-0.21263076865535468,-1.0617221943721926
1.4040640568191916,11.393187845591978,1.6014778938920329,0.6722401868562797,1.1647743412198248,0.4071538166946378
0.224470034888658,10.626815099608356,1.9503860057931899,-0.42417938997062216,0.8719680038929183,1.8259741545398103
0.6110873699351995,12.783947048994783,6.90901135310207,-2.334656893751184,4.318525297351046,5.199699129999898
-0.08014965532224923,9.850197689629795,-0.05307530613128091,0.00032485278410170965,-0.014034100190241957,-0.01202144544694324
1.5659198899887126,11.323230578110568,2.2346860714910672,1.2988402436728674,0.6960496618296541,0.565239695347678
-0.8065565465038876,14.17340504591197,-3.285682997016215,0.3271323563142512,2.389618064909284,7.223961892057936
-1.3557241672829232,9.594065668046117,3.1150749033823466,0.9268851999985082,1.7876581754376526,1.4219823813337846
0.24422358610832384,9.668693600033059,4.1270081733761295,-0.5480942070261758,-1.455594219920463,1.1637698219090025
0.8967400648843835,6.933026583970809,0.08940808091363084,0.36508997265905846,0.04193388672772358,0.2519798990867048
1.947379671421373,10.962032648363595,0.8958838621955278,0.9101334003009426,-1.0088701456473486,2.1101748651881196
-0.4596845048612541,10.138871218095309,0.32039785387296194,0.3104179732225799,0.3639091512293925,0.0979560680936602
-0.10466629848130529,8.626722657455414,3.8845494197218873,0.8385529083152836,0.6704655742508077,-0.8440165829200499
0.10004071590478476,9.840442754274344,0.020712441811881206,-0.00875369299918534,0.002999939120754197,-0.009422582715994408
0.8225814355271521,8.722009303561691,2.2737312854276928,1.0940539149386659,0.01705231041240468,1.5851568546315535
-3.445250750721113,-0.03351896826889522,5.73388518556205,-0.9995598517538071,0.688576999229159,-1.9725756698810661
0.2183348087826395,8.63365115534325,0.7521192063968414,0.9513155992726544,-0.6924290957344483,0.8173075483708665
-1.3136802229249382,9.019672448603824,4.186322003691506,-0.014410446615223726,0.1406573032668874,2.80559241480664
5.278068487582514,11.557043760770151,7.853444399920606,-1.1915475944291236,0.6683366991365254,2.5107721517448445
-0.7537803658945905,8.288543110121129,1.1062064388278627,0.10924246385478137,-0.2520728095012247,-1.65528262195821
-4.413759076910474,17.83497298075127,-1.070642573866623,-1.7350160110989012,6.443431760010444,-1.8416503756541474
-1.2682633850017215,12.867490315010674,4.095301551356076,-0.30747936442740853,0.1689647919555014,0.36186162040470604
-1.558981883479083,4.334091158505096,5.530791583904683,4.8570997133102445,0.1945944416719485,3.7229198252476845
-0.9480844807955839,9.31777535410075,11.889829820911793,5.96579061855203,3.151554793126129,2.4377412860689964
2.4112302745277234,8.453598702067836,3.9619533415978876,0.8478961183934448,1.436044062934911,0.791818466184105
8.430281505662435,17.48934978770149,2.88574519652596,6.379665624192059,1.3663139168693164,3.7993281330757664
0.7531575941953199,9.3115774292629,1.2960096799291425,1.176720055576363,-0.4219021452882173,1.3418065120244107
-1.0010967735822052,11.375547512422864,7.454247804762895,2.9540183252972714,-3.7816774110010227,10.24468193390537
-5.032519167456379,11.097173307267074,10.001687026015746,0.055545209698500964,0.6813340681630012,4.305194219815395
-2.90887743312378,4.923530214763754,3.521565320510279,-0.27163208945704787,3.3936904189008894,-2.6947482760222243
-2.0295818681872118,7.958629005031275,4.0112395968506895,-2.4010566101316906,3.236389827237831,-1.6734973885536397
0.21732785267072935,11.91703575172469,3.8439773826141383,-0.11629617937809689,1.3602781699238138,-1.4607276408816552
2.1253374334242214,6.691762620467358,-1.2656114469872541,2.5161931052394664,3.8951106953733774,1.1170364692658943
-1.6968517723355494,10.779881950329798,4.742655304506763,1.8634584922772843,0.9663728914231049,0.06907437946748085
-1.2955539461926688,13.65354252638534,7.359765204835396,6.030073114735365,5.9158978055506575,0.9248976886247885
-3.353138803857897,3.8999981394862306,2.832307848749397,-2.272706102764881,-0.5818611747769147,4.686950949245448
-13.23519880356486,14.72541023038502,8.146835641637873,7.685169904986381,-3.071591476274027,3.399982199511416
0.241950013610906,7.7952800054747495,0.01959456834188833,0.16486409537579239,-0.09012048519781679,0.8538233487788581
-0.873831599236633,7.906402834119114,0.8170070830555247,-0.1618330870611786,-0.04924282710807282,1.033390947511817
-0.19790627749601764,9.86884104354503,-0.0005770679536455901,-0.05534304125379133,-0.049549375790644744,-0.07771149831463486
-1.2863450899913549,12.663206986574163,0.7638162240005737,1.3546314380223314,1.4539608763261236,0.3802684469205212
-3.532064820185521,14.372504567959083,-5.922279086484471,7.892259688505161,-1.1765176102948152,0.36551892094911764
0.6612109537014679,9.425492988267719,1.643578638394483,0.5762281253836918,-0.14307848291389624,0.07397911862131712
2.7157804589377648,7.8761566776477965,-0.25722028754524606,0.3571174591589624,0.144708051716967,0.23280039376041123
4.3878767966807075,1.8253426613206214,7.187962090904409,1.3101321450647603,0.026647587644510917,10.057920850882091
-7.940760512383991,8.103263081155777,2.2095379411611247,1.5689397591004899,1.2160149951825971,2.416268595889873
-3.654042800440966,6.400015977112933,9.979823971872092,-0.6177867764269962,2.9220459138716177,5.793554134503317
-2.0834533587022848,14.0247178264768,-2.7582109044520653,-0.7410855384500801,-0.43307128113356463,1.3222749116414574
0.6903804332713254,9.417129708631414,0.2733934179394939,0.19643214568789402,0.16755708569916425,0.31416755532991736
3.2713456489066166,8.248368030788633,0.19634889073937511,4.83194041436291,-2.210293582574742,-5.978933677282622
-9.144059550907306,11.90365986234414,-7.730319721185902,6.074273115422772,-3.496558947012426,1.6322504031517673
1.6610662612494786,9.628719138505994,8.197050038743797,0.1099374615177442,-2.7847973543136613,-0.09298854423922398
0.10233850917221665,9.885644632754206,-0.05578089771128558,-0.009335930566677034,-0.006366792486349651,-0.00949512001527332
-6.786673902916316,10.10840774812632,4.403385758229063,4.5735797180025966,-1.2117664674855275,-2.147666716473677
1.1092484633949855,7.929139987778483,-1.3069279460777408,2.7343661295613684,1.4102215763413053,-1.9451982384226163
-1.9116590537548757,12.364056701019503,-0.9151133058740095,0.41676564802846316,3.1932631628406125,3.133106236002664
2.768848367894589,18.435024560061933,0.9126020977499723,-0.4208104493022162,2.0083928412359175,-1.0683805694203907
4.217837068064539,8.511777175834286,10.220276412890044,3.2344955134443616,3.684121634421981,1.2788955613187147
3.6267505742148107,10.533893615974941,-0.8435292531091543,0.8172153266337298,-0.3022816286284451,-1.0206737187516324
-7.431893477117521,7.521062584235482,11.254835696369312,4.258198625206203,0.696832585427462,5.609681711840109
-0.16507850385998746,9.452196774325712,1.2934233032488054,-1.005488182786694,1.4754333330766491,0.03229478109445849
0.5980092455139533,11.866827612928539,7.336119188936221,-1.0174377314081413,2.200765215409866,5.964432353543538
0.7334790935157163,17.369831103084397,2.5928337406232966,0.9181742783051128,0.6947054543199358,1.4449622869601049
0.08686374639378999,6.069046312295419,3.98856026072605,-3.4739258531317088,0.771842427688443,0.8240166606627399
0.17227650953976392,10.748498613898755,1.554631231848988,0.7583056324383722,-0.6386314922807037,0.8068693034359157
2.0446664055135697,6.5556951896729645,6.269821112764489,3.1414026293038004,-1.6908102950914863,1.8841393241080504
-0.6124037946568828,7.008937715922934,0.3423916367437725,1.2569422671048924,1.0306658335767414,1.261192279134137
0.02193068559698254,11.78393124502341,-1.6353287879432286,0.0884868307629807,-0.04035896033344488,-1.0408518235353905
-5.241422991720063,9.734479975204742,5.834494407911301,1.6248058369102736,-1.1579585197785147,-2.2293423258074707
4.49220364639809,8.804340975598306,5.428128442668125,3.479874528639177,-3.7331875089033044,7.3420199498403935
2.302736365603177,10.150485488291922,6.33400095127374,6.208350307858273,2.7998010313633053,2.1205791065917117
0.2427257407948,9.764214145751325,1.867948403647369,0.24836305405277664,1.2249609512860857,0.7528938147138813
-0.42248817997986693,8.511258336387101,1.5098083192273464,1.2853856095624785,7.2268417441645365,-0.7908399926957852
1.0992780052216211,8.938949627398374,1.9662384912140969,-0.03969492808429875,3.11038456099011,1.8606038346473603
0.11817824261625438,9.799428734097958,-0.1967970912128332,0.04351569860198728,0.07881842711740147,-0.07307790806614091
1.8588198010171797,10.911643037963284,0.4626581755013133,-0.6230666474794544,0.733450801529091,0.7965531873221938
0.263417853303742,8.375360267739099,3.8882147198257906,4.5157467349523825,1.6913755058842463,3.13026272613099
-0.6938440369638859,9.282613726703953,3.323962184450317,2.7274856898261204,2.6410692302210297,3.191008591279322
1.6651882591252218,7.814093020723895,0.5980677217128925,0.8127678537969898,1.040435577350002,1.044303597434709
1.0430532314822587,8.545346051115775,0.1580373103132,1.051482727718137,1.9348007965967493,1.259008016067983
-0.09550750364349792,9.701820856608839,0.11016616138926745,0.0033354566947922815,0.0018241956264354593,-0.0022718819282320354
2.3686173942525284,10.648143115276742,3.859173450952185,0.511627619344946,0.23978365871273172,-0.897944516949621
-0.29394527556217026,10.390929176769058,3.839441835533071,1.5319035095577687,-1.7489914198536658,-0.21553067930649839
-1.9598301146651993,3.4216030246946305,-1.411349713050929,6.615347466376411,-0.5473646717592198,3.2540158842183473
0.48691069125985353,8.97539354163029,2.055729374083802,2.5747797133145447,-0.4375546849392178,0.865362743040178
0.8561763418751631,15.166800882391247,0.5169991604516786,-0.27072621472583314,0.4492837468121156,0.22864873445829648
1.6187762416811926,12.352946426070815,3.0628826723800184,-0.18730337165264255,-1.168421587594966,-1.3791763427375794
-6.547979929195174,14.97841761655371,10.291074272272109,7.172037629677837,-0.26782427036820233,-1.543996002516455
-2.449581315551975,7.400771066389964,1.386906922321353,0.025866845852742237,0.6485086528448405,1.1823222442959829
-2.521213261358068,8.99748029572891,2.669703964201908,-1.374571718760555,0.5290131969771181,-0.6823781407934735
3.5145673218427715,9.869228418241784,4.116493050498366,5.185352008968927,-2.922713591555982,3.978419121196588
-1.270815416643973,11.356941848430125,1.1200617765306036,-0.2684566344974935,-0.061796792777299825,-1.0687196653054782
-0.2966782276284978,12.535665655763559,3.9751053351667225,0.48333177040985903,2.004439583310246,-0.6281119406296949
0.7361814633207027,9.905049958675011,-0.4039733499082412,0.8367086202524006,0.22474669714272172,-1.7376211255479617
0.06997130634664725,10.552206085633816,0.7967625109655538,1.593334420091583,-1.009740390710065,1.1744606825530792
-0.22299556584595037,9.691931338004578,-0.16893886264056412,0.03834197846445449,0.02239679794230362,-0.22572876043068332
-2.4279288397520618,13.143448276594725,0.7205065537223456,3.2308849358167637,5.528312195640218,4.722273912582022
0.1255791198624136,9.999482232040332,-0.05701074654542128,0.01794972983984594,-0.02171368481971451,-0.00235869531921657
3.7204249062497334,4.986505157982894,0.1720021622606751,1.1471859905873703,-0.8963703589455454,3.0628387969069157
2.6266902250272564,10.939640718436653,3.199746149288422,-0.35011263303209084,0.10269267827162248,1.3428384165354161
0.03908668825045347,9.102597233388838,3.1077615727005563,2.1065190161437255,0.4258159001540748,1.5189980067359372
2.5713938382218835,-1.415577112032091,12.931955520948968,4.816247936041868,2.3146401566864476,4.8861050052363355
-1.796159199684243,13.378288950761355,5.536977507374258,-0.05863286290290537,1.2550147176963011,0.06565645628712447
0.1909600951854308,10.385850292903642,2.14483757685812,-0.053150678783217775,0.9046541294858528,2.0484903998267123
-1.7502329825433536,12.130463343936201,2.037741974003158,-1.6217259106681614,-0.04816863488906664,1.4017414917159599
-1.152988168529975,9.928850036946896,2.3805060596571406,-2.5056166834125184,4.789481918106255,1.0710988741393477
0.009649531659147498,7.155152456933358,-3.9499120123939804,0.25458022236353317,0.09897842759089603,-0.04904772544868319
-5.043815023930164,10.830013418802013,6.91708603990105,-1.5011790794419912,1.4222625429845972,-2.3216098490494934
0.5390456842782181,8.809548246820519,-0.25343619589155253,2.3718682839638214,-1.1111055524021263,0.14859645824184453
4.842926287680005,5.8922576425622015,7.50839825733453,5.1315413164457615,-2.3180867207726026,-3.919431377113624
0.8212148531341471,8.384972227014767,2.4053877724860078,-0.5146066647792842,-1.077961788378226,0.13819309540590163
0.010302460168919942,8.961731749793847,2.5522211720003916,0.1955405500233771,-1.4037514857271223,0.9006612293332721
-1.1967182764619557,11.978881273786053,1.1870659805708559,0.5149967682589717,-0.4610849320378686,1.2817064212612173
-0.6595041514653649,11.896633010461887,0.07513464117604496,2.6500451116502446,0.2669424994003,0.006084336950811897
-0.428879934585668,9.699152910777146,-0.01060111301499861,-0.014190945183016843,-0.026356819880618096,0.03933032953989714
0.9261954484835173,2.18939176713754,-3.558669266814027,2.763351139538189,-0.7102856689433672,5.480510077829389
-0.5666027117178174,12.044936962646117,1.8129185865417012,0.8174857001244706,-0.4808107704838458,2.6984135764485675
2.717883948127756,13.361240616314983,-3.1322749652638704,-2.1036782640672964,1.3549673166838203,-0.6553433054905071
-0.04192971432660996,5.133489673281239,0.5685045906497135,2.298306772275808,1.2703024033172658,1.7169583599000342
-0.827253558459548,12.335673052639414,0.7670587869297023,-0.9111914503374421,0.19847532075434404,0.6113760811391047
8.402842332534311,3.8180083896659607,6.041112008269204,-2.280838809757382,-1.213787384779767,0.1664637863492251
-1.3836985178211256,9.002934383196116,0.8497560323222489,0.9422712210745423,0.0437383220350831,0.7359526240767933
-0.28504393985060744,11.400344140350732,3.048677720973067,1.4784503880337352,-1.2415744703756388,0.23210136142169968
-1.4157348355137402,8.921787979596207,5.734844373274472,4.044911674078181,-1.3576650147853808,-2.404871683210488
4.397783582438666,9.617940232302098,1.207874069547529,2.2013893217975373,0.8094092039082703,1.725879993722157
-6.986860808579175,5.561382042377579,5.957607600503603,3.824398710554212,1.926400217577811,3.1264765861789536
-6.424744847955488,13.900900999971876,0.3369141948810608,5.980223290548605,-2.0609301079029274,-0.8685655075477285
1.2462618310159563,10.557400252648176,0.04551680954895343,-0.17461608213363702,0.028505912271640926,0.09865806921779569
1.9152992901953159,19.58150016744185,5.503689928415692,2.6598980455305083,0.8646858120261425,0.8129282898594025
-1.947253154356449,11.155668308014862,4.01016518317592,0.9973344536648135,3.7684823593866885,2.068342909114884
-3.6904507832439015,2.1919527214585255,4.90187769016605,8.4664871181174,5.838473290608055,1.2788196521549806
2.1265641687570853,9.338128709052684,6.291725002234705,0.0652961349788782,0.30135368335633617,0.2612887877065653
0.5073941848683993,10.817641474495195,0.9015282492385923,-0.5510801816466979,-0.6137468630562226,2.931814902426488
4.38848942269122,7.584848801835809,7.493030406262415,1.9025314670135023,1.7733138409894624,4.306135243036126
-0.9440172382465853,6.648151868875379,5.2198627019039785,-0.42608933059914555,2.108187448390796,1.068616439154355
1.7788819346861682,11.01670671386193,2.0548532520817333,1.9631148100032092,-0.9240554267196193,1.6759819702144627
3.0307901768714416,12.384614477013661,7.502223641460036,-0.20928809485540834,-0.4091631093828796,3.1552164379077334
0.7721770595411205,7.859952039223631,6.952867164359093,0.4964675445584159,-0.059300724975061225,-0.31390772858296767
1.1070849144873125,10.039213342732161,1.9204819924278802,0.13370608079111285,0.26068710611424906,0.2912102006926084
1.49571827104052,9.522079071771056,6.236885444715594,0.41668250876170276,1.1228368542634324,0.67435162007624
-5.517442928523005,8.18219979872444,4.818526241068125,-2.3607329047440206,2.124938742757864,-0.2577396298170447
-1.4953576263600366,1.4308949502617931,6.914550283018866,3.055416806868084,2.484873399750546,-0.6214621202142032
0.6469798115898373,16.46162887010378,9.067076913211416,9.135847412105518,1.6179230825425477,0.5646126341959449
-1.0008148331817064,10.696529043001894,1.4936572466198426,1.6855427286333329,1.9920344703678274,-0.21915536900922628
0.8622825444000992,9.7944860205766,12.54200424211929,2.2717979128308237,3.8266309058545307,2.0645617571430703
1.0337067034147047,10.81789406097205,1.3897252208495388,-0.35074025375119655,2.348846453098508,-0.5944978495602631
-5.262057758044353,4.312305957053124,1.669533221258071,-0.5245989394313297,4.118696980997638,0.4423113868596342
0.05532075290559199,0.49189358192189303,0.5583452440933234,-1.3689393042554219,1.501606349797285,2.84922386243979
-1.8056537093785878,10.084726359361966,1.9322235338410294,1.881675367450277,1.1732162727817912,0.6416055586977727
0.5655874648791037,11.574907114530808,-1.3469613492893537,1.2179094074318138,0.5054265756979661,1.5800459136835676
-5.064420554252208,0.17328830208521318,8.70775276172587,6.29237915189733,4.213620793321321,1.9382875256041747
-2.2908803087102996,10.2431916255554,-0.9576312877956621,0.22193199226340038,-0.4456077407642055,1.0100536489165273
-9.983047297489613,20.524362792241405,2.2608845404360878,0.41186625340022265,2.465177524355741,1.2924630139569915
-2.63709734768712,13.718871626715716,1.858326579300341,0.7647120288020106,1.4799449785754981,-0.21871778608004366
1.8679793405515253,8.664297243987397,2.5113995804364277,0.2356012812002799,3.0618252650324096,3.0319267780965626
-0.76054152016343,13.489463421970363,1.4162388272074768,0.16162806075996916,2.0427470672188175,-0.3950798471009225
-2.12796538385717,10.83548580241879,4.497391993607843,1.9567659275245242,2.106480250270372,2.801782761923198
-5.0612511174202774,10.219162089328401,6.7243661043370775,2.594917440598986,-0.017276005356688273,8.604679790341635
1.6576300299812314,9.952349184253677,1.7928842334683865,0.5137037813560299,0.10704765282904743,0.7755420022269418
0.87391362504716,7.685665125220993,2.56188921246841,-0.4448979317468308,1.768387958193905,0.05462113562262366
-0.0506581618139956,8.641865362032455,2.128546756804887,0.14484716460260882,1.5252767651173864,0.5285985577258997
0.5835736610180152,7.163663577264311,1.2946655853107016,0.2006346044929096,1.7798983905776904,1.1041250632266468
0.6115460831851169,9.04170780296755,-0.2772678481608267,-0.04325177099077407,-0.004278710398809588,0.21940273275956776
-4.0198567264219385,15.66847099525484,-0.4946139016358968,0.19090018938609776,2.116573116816229,3.9750543849675495
-6.0704162774734645,6.141795387770423,-7.9649471813399515,-2.055694857564329,2.7215066303746562,5.896409255909399
1.0119825420332007,10.946503706569537,0.0972540149663752,5.924406159362781,6.66816928610327,1.8141561447426606
-2.0416231388330472,12.197729477127972,4.768225802392731,0.4077491285063435,6.929943960041446,-3.862828805925264
-0.8358639339997566,5.822425966639984,-0.0422265832712041,-0.3226910974479896,0.5138219179060303,0.9899947393461849
-2.3104350452963898,9.568890160029946,0.7059131551545015,-0.8381765349004702,1.1557625962672167,-0.3627283065396468
-1.2190294349848634,8.417028090052117,5.296134830924638,0.3687645887974045,0.04378896035687485,-0.7910313407909717
-1.4176996012362486,10.86695186659834,0.22078895477082572,-0.024920356448578262,0.3590336910133045,-0.3318052572780308
-0.6613174609846015,9.148831431154976,1.1239780632748029,0.4944675968718734,2.796377485070105,0.5639420293287662
0.9439550934959849,7.00258455030031,0.9906212327014683,-0.76267973848158,1.5402809753199913,0.9392605078190408
-0.09705267383339265,9.940778537270543,0.15474377048952798,0.0018213123977520518,-0.0001822649692962472,-0.014769964148675173
6.595373072916686,11.411640013762367,10.700888536991892,2.648029900673869,-1.6412658942022484,4.344361931401249
0.3517261924437399,10.20363796896976,0.3744691019338942,0.07134649873647818,-0.06472481498144111,0.31568377790473257
1.8712666215906752,6.459567180035984,4.401214183624049,0.29474870683908194,-0.5870481746666076,1.964089354201685
-0.7496817010386739,9.88800861896682,-4.298639316709983,0.45876391561003305,5.065866025269052,0.669032835376184
0.7828764124810168,5.953850029269027,0.8985177226898928,2.720600783698583,1.1381099510894706,0.9983258723236919
7.304854369365185,7.405086581222886,7.304287037127846,0.6328885161365332,4.931077547259866,2.1663146477124613
0.051750297196032524,10.417985166076216,0.9643461274238688,0.11456636986187146,1.2349563932346033,1.1879100131311682
0.9650364661402555,13.07750705477226,0.45156420953692233,0.017031131581968506,-0.3299648302256505,0.13936610417232714
-2.912505304896531,-3.7264566045239285,7.074170400864986,-0.3885443658426513,3.345256516429187,-0.8121225194124531
0.620302936412805,7.9331904618315425,3.3274631084070596,0.134490751855813,1.0130409691637974,0.7418030399249624
0.28439299343850055,12.906262124603378,-0.20769555324870526,1.175438072448958,-0.6818451562091452,2.2752677975726345
-3.3768483500855546,0.09745993750447468,11.374354548403026,-0.38258352727081935,-0.6658235359318736,-0.15153625515945324
1.0576284899239412,9.740591817805877,1.085831010491952,0.24083048790220896,-0.0862264628131742,0.43666666643874763
0.06447215346735481,6.628836981129204,2.6299714631928395,-0.2097785172176838,-1.0601582506769678,0.7819596790380889
-7.264302573230172,6.831075306937776,10.023407709128762,-3.00431491336209,2.494541943030722,-1.1762975162895
2.15461394722913,7.204859625269291,9.473206157039712,-0.6660326925258708,4.560491901744841,5.5132773849440415
1.4503919170003385,9.029208612958282,0.17204726895401495,0.05966341535418596,-0.30573479993373653,0.03141708710523515
-0.14934580167324638,14.748627877096586,-2.613377859014271,2.7968445217275857,4.804844778321011,-2.210286243637893
-0.09215330939702532,9.793657635023973,-0.054891153258784034,-0.0008245744582163226,-0.009153371231461099,-0.008088115908845814
-2.850661505635662,13.108005127362022,7.019402723662298,5.836176012694269,3.389122344545481,0.13857355885902845
-0.35947240234869293,9.237890879875907,1.8906588782474887,1.4740772200892056,0.5127672943768246,-0.5180499234354321
3.524897301920992,14.47241866848867,-2.7283147042026488,1.791041876718316,2.256151787378875,0.8688218819397249
0.7943489451668301,14.301069640173697,7.005738814568792,4.804065383574182,-1.7022983467831594,-0.6456888276769681
0.7266125661996584,9.49295439657758,6.4307468428298895,-1.4042891121225383,-0.11662706575217596,3.173968394605549
-1.8275740385560884,10.462475863672742,1.1160730484465442,1.6647630319809696,0.3397397424392673,0.6067375304907119
-2.657231614995575,13.0296264729818,2.0519199961159393,-2.999672511873582,-0.4453165022624761,0.6746960025386437
-0.7345695531993175,9.474025047836113,3.1028200328498423,-0.3158327612757241,-0.3726388486758455,1.7401603053513146
-1.7717321331888138,11.722067483035456,2.8589094742727648,-0.4328007476414857,0.3781341605945799,0.9368450866436199
4.95963531713987,10.730336076415831,4.670111433382831,0.48648947796286657,5.662053265823731,1.8508228715376709
6.510371007717383,19.065061904643898,11.02500348958077,3.5859636383864086,0.7375819581038117,1.7743769156297007
0.009064184420203163,9.786229544630817,-0.03143864329190409,-0.007106426241312392,0.009962186246144738,-0.007325676290267778
1.1340498028010828,9.400576185504832,1.626444507299531,0.3897391754754809,0.8484789115883098,1.8963215606156558
-0.8909377288522892,5.523601264966272,2.682398197108939,0.9841342985147867,-1.4875431457291923,-1.5493193169751618
-1.4364414889467636,8.032264486170888,1.7377772782280025,-0.018528673396365436,3.126450123742082,-0.8771078562499055
-3.385854084364539,9.770446954238963,6.109779373252721,10.200796013904313,4.273101083463023,0.5242785204461304
-0.6627451004962087,8.537430210118584,2.4739159265956463,-1.4944837071780674,0.1769158724518709,0.01774874912487784
-0.721558507974738,9.380606965328694,2.111852977400534,-2.109573421070503,0.0561855662651885,1.2851035635886003
4.214083655112039,12.856953540625945,2.870293248653751,3.9929005527220083,3.8150649464840263,-3.8515791283776375
-1.6432127626132935,9.742682359121645,-0.6241880958852661,-0.3411438065008713,0.10338673825557909,-0.34717286542789094
5.90899512206729,13.726390387596457,10.618238667350102,1.4644183091913348,1.9072471333826244,3.1358373311765786
-0.7790878823642363,9.964270589434301,2.0143443484390997,0.6736267794072217,1.4480824133820143,0.402950879878456
0.0054439537213439165,10.579985004028373,1.154802904559417,-0.40419354926263495,-1.322992766617217,-0.20399967771240535
-3.247137293913126,4.702501713746541,6.7488799733735005,4.079319089565889,1.3258960104584128,0.2761271348906351
-3.319784061837153,17.973895541683078,5.158772619555095,2.3318077301460263,-2.172488498509434,4.311971854788043
1.3040800997775415,15.668081731163014,0.9053615770427124,0.5662607536783322,2.713556156209158,-3.308639322469979
-3.010912141540399,16.997346716052842,0.6023873961704078,1.6778492625826005,4.616309392891161,2.961891098860427
-1.843460874292895,11.425536198379081,5.9331680520929435,-1.0906399307736083,2.4122263815533764,-4.31766281945219
-5.69386450809036,10.058549788517555,-0.5002438511448153,4.741367059689212,-1.2543017586033787,5.181636357370129
0.7855815308207739,8.900364536384846,3.134402770289844,2.4795263137524106,0.45478997728540205,2.213737323625449
0.4754668283719523,8.346712775732307,3.7838358066901208,4.740112820246459,-4.791658511712384,2.601730920986225
-2.4052583986568643,11.272411642458943,9.874950819254718,-0.8346749292055979,6.11278350698958,5.526770518001437
0.3641551340824438,9.68733104495829,1.1042248674964195,0.03876281028471862,0.23450250721807583,0.1431690726472253
-2.659962248712887,7.430235366907501,6.339286186388918,1.550277032887489,-4.350954599178061,-1.1126306576511027
2.1394602042632513,12.334296554635886,2.060117586770223,-0.07961990084906467,0.36415135629319234,1.0254822059377746
2.8848530123528207,5.733289622695562,3.4605314962591303,0.22684689299075528,0.11422323192488959,-0.05627597349013291
-0.4745228936058737,9.001875912236443,2.2960909590059977,1.9369250367284327,1.6889322182825808,4.390768636351995
6.440780479588093,13.996022172826203,1.0818164867715443,-0.19751870472746114,6.681789050088451,0.6822329334557711
-2.7578323001915,7.400540295927442,2.9517828515876703,1.2067449336035727,0.5654218350185198,0.5991037569043425
0.07192660795462079,9.702692741169635,0.20095846544682525,0.009663315132296249,0.009116679650692922,0.07076880081187517
-2.893802665625201,18.689646983792002,-3.2044302411917496,3.366620724258524,3.3107099060963168,5.886100879954218
0.6384622951294996,10.733323384783615,1.779765039101542,-1.074212372565887,-0.2847463756076384,0.5898214203298717
-5.000351042511886,6.945477914922801,0.7762520775284241,0.7539475060288019,0.672762070740583,3.3440729648196506
-0.9614315741566162,8.704280488070664,2.1242388095543556,0.7188885925102699,0.32782746799882656,1.3923619447894047
-2.3614627330130977,10.519229621423479,3.639386622381849,-3.095242411301436,1.446289399075499,-2.0346157394459445
-0.6708488493386175,9.240424174919879,1.9962375125716507,-0.753361941300176,-0.5017840266264166,1.1177077294627114
0.16871761484982226,7.384608191526295,2.2149934465436454,0.6416989994067648,0.20031915674430628,0.9254821442266502
1.0993682797943467,9.770879769374222,-0.29558647905053637,0.09716434049265645,0.28252085236543256,0.1903106269330849
6.852758508741263,0.6190462617850141,5.771540838699013,-2.456287858434708,-1.8240755496325756,3.2267503004080806
-4.348178738476457,10.760988886373823,0.7504003791025333,4.226716598564854,1.6418539066193558,3.824362374210431
-2.3304644823978724,9.047712968953938,4.100016407379952,0.1588806247632082,1.7925519520074995,0.39254355086511494
3.8750445860262692,10.23920471209379,1.6458142147539592,4.005737824683495,0.028316024429306585,2.775320951174751
-0.28074455725596614,15.649919134572768,-0.1813452917876548,0.9226237491462335,3.344553651204709,1.5969112365570561
-3.2535569112847478,8.682767328379619,7.960467786417391,6.307677737202693,-1.7461478942043653,3.0152330947855654
2.7097114665560764,7.500489901325939,-2.1815942427930404,-0.6791370303507405,5.747528337683855,3.1007987228210943
1.6815206231663864,9.078343734230122,2.562969304846552,-0.77802509990195,1.0374627386008985,1.14783491416469
0.5708788760368576,8.6683722962302,0.6835966094356749,2.2107812924655508,-0.4805046945272591,0.904998417075185
0.25417879854667896,12.137713205599898,5.174777961217373,2.0314241102260944,-1.437061668405815,0.2593365780538519
2.1309264456248913,14.11663970696804,2.8497293726432704,0.21089696994863094,1.42067451235727,1.276245470030032
0.9319615383116462,11.080046540614584,3.305594358903959,1.0390558339123455,2.146534031487267,-0.7263512885088441
-1.4535328753047665,9.097822325629599,2.6829345012348833,-1.2475260749819048,1.2733332243196696,0.6302750680095076
0.7966051660682104,9.037016964135596,4.391435832846435,1.3627381901196456,-0.8529415128791884,1.5799854501620072
-4.571049061425583,11.271568154436864,2.2822582264346023,4.5257869023218635,3.815644493679326,-0.691837275433107
-1.2498897718504125,7.751154619091893,3.3712053074456128,1.289246178661795,0.0784948556556111,0.46368543810745594
0.7082055836374714,10.388771594753722,0.1577578192655359,-0.315721103752134,0.11459407503377544,0.17869590074865346
2.4403072716831167,11.401463383779182,4.9732044749136355,0.3594677693633631,0.42627700395832013,0.5401165224563949
-1.5793618437871537,16.68215030019518,4.357821164172169,3.227432342512696,5.848886577106725,1.2487463095986981
-2.357477339145574,11.058526324929383,2.6821361041487553,0.6643227462061077,1.6280888304001964,0.42924910565365515
0.08663311105772686,9.992978581028495,-0.07101963515218869,-0.0014722699735982194,-0.028158192538956652,0.008531984006557082
-5.348420333299598,9.754827486131061,4.953587234570534,4.903890820362034,1.3693084115792922,0.40041239454071076
-0.6434383980923631,8.174335561557719,1.0519948488170843,2.017322862846439,0.271939450321949,2.4194338592947915
3.6271179709708337,16.46174135565323,6.8381098554384945,-3.092480057384382,-5.51201646376258,1.7074268683337226
5.003112091182599,12.10315024991662,4.983817525218489,0.8911297479754882,4.350448818265011,0.4034212545354714
1.0332698656866126,7.901355822211279,-0.4443708588009736,1.8636671618260399,-0.3342708594550867,-0.9867349175228366
7.808281119378649,17.012227639550083,10.497866568542875,-0.9805009172647527,-1.702272399038602,-0.04235084308668968
-0.020653014124053362,11.433595226592288,2.1367502846470003,0.1814355562894775,0.3739823046921671,0.9712911095495312
0.032703568204731526,9.795706590492744,2.6174742090985568,1.3246872252878097,-0.7395308225660104,1.9614000618260645
5.500142864781803,5.978631682478904,1.68780945264569,-0.7209443597297747,-2.813612105903175,-0.20280716369037055
-1.7752532753146022,11.899042371990454,2.3286256427872676,0.5595135791023085,-0.5948336179806832,-0.006533296341406869
0.41447543080121685,9.582120860521519,0.006569984274688134,-0.20910249509716236,0.03627437413779204,0.20825139072669563
1.9607088987669026,10.686225382770534,1.6958491611452167,-0.6038571528506271,1.8487720271494212,-0.4807328877267164
-0.9819565098963763,12.335237844943647,1.9439557402974024,0.3065490436724346,0.8490881404038044,1.3343108865173263
-1.174911368411967,13.479125527787756,2.0425770610287204,-5.7272327389731466,4.479879055528801,0.9405468391730787
-1.1748833709959237,8.791274459313687,3.3894580438595727,0.37396714645758666,0.8517465817051282,1.1923288484894896
0.6734440789751283,20.04673651604133,9.219703151777589,4.07309880818751,-0.5755260774164523,-3.87865083670202
-1.95960414262135,10.291823195352261,13.926826784531851,1.2927192119783193,-0.9454503115715815,0.15986032932595995
-2.864323709161421,13.417674657357992,1.2292328784187774,-1.0076077337579137,2.4342752043995732,2.1249469046205296
-1.8317327001527277,11.782780635334325,1.1128035195579014,-0.42908875732127316,1.478580942590487,0.8523737630622109
9.788116173037508,9.506916112002854,6.58344195262119,1.0245503290349047,1.1642307128895206,2.1156458941238565
2.3768183058763923,8.611213815900859,0.7523946274387168,0.9357688129496518,-0.4072603883785044,-0.35028382467286745
1.6696743885256413,5.348614145920348,0.9611952552298066,0.6878416395185418,-0.9781687614927759,1.6759335790513141
0.591874751418594,6.046129657998634,0.42951705317243793,-0.6984374964550129,-0.636164253295028,0.8218041036699764
-0.38142464563365563,6.217342167471779,3.575454394594532,0.6916483749484987,2.543697329821531,0.237559318651968
5.6160980689356155,8.254481164067395,5.959834584462505,-3.267381847484234,7.191840361901039,-2.942105127451647
-0.6343221290908735,5.47572389609814,2.083412165513877,1.0358938515083325,0.4045868808831572,1.3366619100442088
0.9804244699549104,8.765077002522455,1.48232055330505,0.2590559824405991,0.21412179313286273,-0.21418911411178818
-3.5587632392718724,8.129855189563504,0.009342924161185984,-0.3619845723330234,0.8916981619525319,0.868114398111804
-0.1209816306614437,10.276691497152308,4.794308427639832,0.650661725612318,3.440046355139509,-0.3249366886707137
-0.9610229038014859,9.03035501861021,3.081759897474965,1.195415904782413,1.054111902785162,-0.8673394413751156
-0.8187216584373647,9.434053857430467,0.8960935076185049,1.7438546801886194,0.3885655710018037,0.27337372785480274
-3.007610402143085,15.675516576507722,1.131796636146626,3.7817265330689693,6.8162883259559,1.2683520690698433
0.9019049245759995,2.2281437102277666,6.4161637777279,-1.7001977614015678,-1.0645763310572653,9.3234771920739
-2.086094328670584,13.40153872431873,3.46569890172505,-2.3521647815511058,2.641063007748988,3.2127786213566205
-1.2770584011947996,8.630524605866828,1.9502311924816673,0.5735438839110613,-0.061547251727353314,0.2619526215038934
0.30764526693661176,9.63960144705348,2.048280607622179,0.38520143675853824,-0.3648461990740123,1.6627328824221341
-1.738218058038644,8.193130400575203,1.9185450382234075,3.907099438638261,3.319801364404208,4.5968329586081955
0.6761420828468068,4.913856112251028,3.0172888147008994,0.9036750668014398,1.1337963106079376,-0.474445247602045
-1.8808992479806173,9.886464516363693,2.828498129193246,-0.10711239543808715,0.27933294050762075,0.31160557771160874
-3.034871302341349,15.099722323673433,11.140548776934544,2.2216572375372836,4.840554672612657,1.293273104520399
3.986767490411737,10.479652414791305,7.40542974320789,-2.5526601702624667,0.9784787019246203,-2.714233648824126
3.2560281551090666,11.796999478587502,1.9093798802382365,1.5818212875613136,0.9561540066858077,3.231156087747645
-5.883511170044795,8.313085486913648,2.8838513611307093,-4.109942628187957,-0.7669081011904009,-1.2733893750637528
-0.00693738978411626,11.935986765116233,1.4221493806182512,0.18752703814503138,0.35287454573748517,-0.3803552752591863
-0.8157209496241541,8.258254865409862,7.233932138590377,-4.92068573597478,-2.041462656946754,2.4056784165477216
0.03898003439651132,9.932030906781597,-0.22543121483542686,0.02340977970748505,0.024950950381980405,-0.026205844576782284
0.4338638926110663,9.571423361678715,3.2144328170703504,0.04751271541953661,-0.5085266860564226,-0.6111857155441323
5.977391746205757,0.35035175038049715,7.351443343601859,-3.560886653508497,-1.9564844129483028,2.362552173149341
4.229681970246406,8.805211680355574,4.616495395932391,5.305791329079348,-1.8382225403757824,4.930946214718316
1.6697707621638949,16.50987105568673,6.25889297359711,0.2548524266227905,5.097591253858899,8.064685337847694
-6.733307649291156,8.130975460070038,5.800811650791733,-0.6473589589232884,-3.2048629177622656,0.4903894422115007
4.648240466160796,10.525361496081237,9.907060914425145,4.642570262808777,2.7560333492765503,-2.004391589527706
0.29300297637074973,7.984681043747509,1.0623572851926375,2.1733864927513875,1.5998920740800415,-1.2242248483941272
-0.38467846630128216,9.463711062274399,-0.3936816131283314,0.027806867228127675,0.010371581775762025,-0.010626923244565628
-2.2312325978250804,12.812100618179677,4.175181391425253,-1.92785728146033,-2.6107364901014574,-2.1595544148032446
1.3512069761215373,9.881186164924696,2.897627168406197,2.6427613610811993,0.5837224300728744,1.4523593159233743
2.6109817051474358,8.750261443039578,3.2668893305477784,0.27029551557506326,0.6200685541914368,1.978495372991953
6.231410099071085,5.354378427286131,8.569502162161923,4.357144521652286,-1.6542936132003039,-0.28195400440478235
1.4084268036966963,4.499520487691853,3.6991058629381284,6.873268140576814,-0.8148866964838057,6.13296124979097
-0.6491548271264809,6.566491843084384,9.16317602576369,1.775330790480121,0.46767673587285863,2.75926152276681
-0.6481927783761448,7.9804530591696174,2.7929097535944765,2.6631680483286413,0.42755453632417,1.4764237071143906
-2.7682264655398927,3.7665316617629774,1.8133981227465499,1.3991588768897594,1.0327028606392368,-0.13577307956475393
4.875314196080905,10.940550100443135,9.729892314622578,-2.025605040135276,0.5448329155537522,-1.4778629101442404
-0.009413088797123537,10.465714226938035,1.168989943249297,1.7518408722362444,0.5526861559064392,0.63644735369176
6.967839357161703,12.123003484652244,-5.842384051400748,2.7285483210641184,2.5779440169599583,2.107921743781074
0.3396935631471023,6.331383597221917,0.8924423693386672,-0.46290984232314114,0.6773677310497687,-0.06999625168062962
-3.2428231799144793,4.0846488928167375,6.973719406278057,1.228351603578967,-1.1691327602528432,-0.3680316137417079
-0.9644475800850123,12.549115371976068,0.1957909442996577,1.2736649852269872,1.876863928553826,1.27994090647046
-0.362871459210427,7.963902970075104,-0.9807884701514711,1.241053603192268,-0.3730540808074072,1.9663502417837166
1.9715454398149685,3.536430011689429,4.357909391639961,4.588830232127908,5.898507790818996,-5.195131484996827
-0.9080971772130451,7.572913358282646,3.1602052761751125,1.3654861983773907,0.7353806746904404,0.9293260528186608
10.522228137888899,1.2672337118006176,2.931438453562606,5.351738703134531,0.038414502770811376,0.0322570020042372
-0.4661993384139205,11.548843345837557,6.61258226303116,2.286891707570549,2.7797820428406634,-3.5677169452519015
1.0293641741924453,16.89886753385114,8.752600835232695,1.34203441252282,-5.3495875199046665,2.1931371156433324
-0.10425637234636238,12.016409999980864,0.2603390608364564,0.9227139912454729,0.9456021316207118,2.0537091302168644
-0.20943799530128276,11.577413989649965,-0.9904679333591062,0.4887836410895298,0.4745501413212364,-0.8276410156341398
6.474556596657575,17.942898362937733,5.196611288885732,0.6198360258833644,2.7778182507655718,0.0985846703124067
-0.9464903050636653,10.049297720058904,1.184305705853271,1.8018170777932452,1.1500098546019184,2.445110792731892
2.467574810910952,8.624024369628682,2.9603722684445835,-0.9325305791001111,1.458656871952454,-2.016037412000565
-4.1872230845249305,10.90943545060825,2.173251443341913,-0.14966378287717697,-0.27225037210568426,0.08285807979558757
-9.47974284761014,16.709428464742327,6.15774108862747,4.134499721613273,2.884658687231836,9.515728596169023
-2.9442660116094554,11.814263175581008,-2.1682953105108216,1.7523129635486878,3.5366708384972094,0.5886001157914064
0.48855838953282676,13.265264840505289,5.14776830239647,-1.984284411101887,1.2177469573182167,2.4523612092393705
2.680091528770888,11.149920385905206,1.977340331919263,0.3191496511025681,0.768793495899915,0.5120663241957415
-2.8487369743228292,12.566323069971814,1.3638797421823798,0.10616693098124885,0.26925958554507984,1.566672474663749
-0.22865977377290422,10.270319592121629,2.5321239263907973,-0.5624087829406625,1.4450978438811553,0.035170815611625605
2.006940455136712,11.72681454128175,2.4970060438817296,5.64963925683779,-0.7888329553594069,0.31437595768351834
2.1472161512214054,8.8992229219567,-1.4001042616943713,0.40144486356332904,1.9844973181420575,1.4706351323749365
-0.041676927581289304,9.829042885333951,-0.08961766814446312,-0.007118415077996011,-0.005623087224865788,0.0071247987778492675
-1.2468626511223941,11.308637649992246,4.114729984350837,-0.6382460317693026,0.9905029120768011,-2.1204683165974285
2.729685256738168,8.195561264223562,2.0502074262385332,2.7232868874258487,1.4061944897130372,-0.36310024579532896
-4.93692395843804,6.2576806460336405,0.6231196802816763,2.1770899650716435,2.197824276092225,-4.7281806530864845
0.1865425675764086,2.717935960991049,2.7939679934289026,1.478379526345919,-0.31891750349706527,-2.788749492929523
-7.0814860601265215,12.076473826576159,5.242232862765443,4.549655116750058,2.029801172437044,-0.5400444583249548
1.1273007618283795,10.140602863495634,2.0567451116202577,2.4240491572977376,0.5726302978562272,-0.8756680816957876
-2.079684288078581,2.6760422825081625,1.3458617096386456,-0.20797054336067788,-0.2053553024992163,2.25869210547959
0.44185712039542685,9.482599310515626,0.7350553249383046,-0.07380123450620785,0.17342650234789486,0.07900838952813741
-1.1113363927181845,-2.3377796249129386,10.759196361956512,3.3070270712257983,-2.513857387317298,1.0800453189285042
1.5757323563161503,9.511005364757413,1.8629683354002506,2.3239973750833003,0.39030866599187936,0.7481485486752215
0.32871851276179703,9.017207944848089,-0.28412681510533755,0.2551675243064571,-0.49066452671648164,1.2113913048884042
-1.208202894139521,5.417449657961463,1.661159289811868,-1.4942632913778882,0.23948521695283898,2.241971149036927
-2.5763018772259008,10.548544369329672,10.190809715358979,4.089105935087998,7.957722230976616,-1.237949129021656
1.2380112689042553,9.95512033892202,1.462873070568837,-0.5455037777236205,0.665875108770838,0.29533112044168586
1.7537642683184738,9.092757133157845,-0.06034204929331377,-0.22077254626875353,0.6334122621117971,-2.0612877248558097
-4.227600973529537,7.960480129795969,8.39027278429459,-1.1205881829495459,0.24576650048956705,-0.4066289394076874
4.437164002064868,7.992310847407234,2.2783725034407176,-0.18926961091480932,6.806044022809837,3.484708423957188
1.9608268777015205,13.222512245196436,11.516238684959294,-0.6757641900504039,4.196442834097254,1.1073013433815024
-1.2327803228604737,19.65052758380836,3.900315393504366,3.7407199298219096,0.457560532063898,3.449185510664524
-0.7572550427784334,7.719066526376286,1.4693999350677913,-0.3706633473558535,0.0893043708847786,-0.8782374300559299
3.8612909663536783,11.049525021424486,0.48208200007099045,-1.6290348317802694,0.8596820006663362,0.9841378788799018
-0.07453467085370842,9.058008651260051,-0.17322923602504492,2.0961544285907374,-0.33793639276400533,1.01030347710536
-3.292322550144335,7.601643269937632,10.243963528837362,6.634738075387154,-1.6128808022681187,2.2134465719941803
0.7433473341827626,9.507637543990105,1.8876554117108124,0.9698802337202151,-0.8448714411552822,0.6744150144570311
-2.5345825183458723,8.455476786221578,1.3244822999606913,1.265903882283589,-0.1463922766358947,0.8820076386942857
2.024872665770846,9.911292374446582,1.0945014072600956,1.5491811233720127,4.14252298145375,0.5625430373378777
0.34395309181620204,9.066890300549499,2.6370699803325364,1.7703781385947448,-0.6005142175182991,1.189384795044342
0.878767019076007,9.989645245421626,1.960186436115173,2.249492894646213,-0.6179621695881041,1.2477211408676887
0.26278371092199293,7.294495140620475,-0.6620271842675667,1.3037735340064505,2.1115632412187004,1.559241681698508
3.9770731048733006,12.049185947333845,11.026511118992943,5.403703116483616,-3.0243928172458787,2.03888477542727
-2.3482735901638856,6.273617342944341,0.2106172891274749,5.7023316927517005,4.281975425953997,1.7821968432300537
0.014135756650696362,8.399099083434168,0.9043224805859764,1.2393821993998726,-0.16824201188727805,-0.8658491608452454
2.2515858690433332,10.26152751847286,-0.6298612763363467,0.37672295811116807,0.6659250982220216,0.49134044370183566
9.307611283417002,13.703012680553885,8.627446412300287,3.3659364931769273,7.910909395159905,-0.5419027235109035
0.3652960761978391,7.063128565010032,0.06949453661505878,0.44439159771584746,-0.068199222563046,-2.2375305361690763
3.135150999424688,7.950912153101178,4.71689422576911,1.584444151296456,0.10040522737799984,-1.272797705002497
2.8042939299087344,9.615421832277903,4.200912798986768,-1.8912659266792629,5.048050904727173,-0.8280519758354439
7.699433132969233,6.626159364125063,7.294592936627285,-3.3310420307524717,4.653228180374736,6.286098010431292
2.0983128231458434,8.42842718585837,3.015245013797036,1.262105304004273,-0.49324712908098584,0.46846477524371927
-6.5117243375478,13.785177081806118,-2.377922515906942,-4.284722773038508,3.1029811129092653,-4.161866957410755
0.6914781023899167,11.265213572930575,2.3816154921215156,0.8138504093192455,0.02858637915675255,0.017086505565090893
0.9494389309363804,9.013637155761801,5.559645585761867,1.4748705669438646,-1.956471337903558,1.868700646225527
1.0232817914431664,12.104332059977805,0.49436948033997297,-0.7435343813929014,-0.937066621079748,1.6636049444143195
-1.767429943798121,4.594751548344316,3.2545452544115063,0.9493802792245353,-0.40827747807887516,0.6515897897923713
-0.6850503725347039,6.915167358080842,0.24194420866894406,-1.329401268359354,0.9654773956069915,0.48015697538447505
3.1845938302117514,8.711061346071874,0.6150687501106082,0.06820139245607437,0.7245225617629496,0.9353164976342804
5.257124893101588,5.846854011190256,5.196187027929908,-3.1274193725979327,7.587000575383405,3.4340049523418585
-1.1748599644848865,7.556982403174452,0.2923105056243753,-0.0011616643075442745,-0.4265670536609194,0.46809254970982533
-1.5971398089595874,10.59781112272932,3.0302356541372975,0.44074742170209613,-0.14523882877602645,-1.2773122306678957
0.9670038556756941,8.991175426751687,2.402501667059618,1.0651969058299033,0.4930437152257977,-0.0637729109967794
-0.24257798252572146,10.108183171918375,-0.32862820393437236,-0.01049213235443857,-0.022052592923430595,-0.003968386370683319
-4.818430573114597,14.23631397215939,1.2091258935470481,-0.18941858322756255,0.21236152523775464,4.7506467135620785
-0.029440834233694514,9.873559854647109,0.014583949310939101,-0.003292569604867288,0.013130976564111711,0.013423838709785306
0.359446679964198,10.210747399038354,3.8992448236009154,0.23475412698548725,1.4072420296629207,0.27983414921091504
-0.6395007486140443,12.64792315514802,-1.7966587687110556,1.169283200372436,2.750890815607966,2.913618145893832
-0.17778235878973375,8.550713813821208,-2.143341855946908,-1.4975630216799471,-2.649824180535334,-0.7952070774214008
-0.211090515977254,11.459856512822512,4.54604773582742,-1.7853394285751492,-0.641552481731315,2.085993931290471
2.8373036481893767,11.407301045501208,1.0956903512571812,0.5429501777833843,-1.0117721110693485,1.5566245698811274
3.1943975635080957,9.216537646122001,-3.7277365178507136,1.2965376330539797,0.49300482621928066,4.251661390227885
-0.29793308806032914,19.85310957638933,1.3102391979202035,3.347710467126783,-2.272736051437844,5.371974977933087
-2.284489647136307,6.231426769810984,-2.115048153352647,4.388926320542659,-1.478992661388148,2.2837619165163394
-1.629802620141457,7.7435494400365155,3.7539776263074134,-0.2561112302330971,0.8180859490475255,0.9409557974643703
-2.2532084138404582,16.057983691339224,4.674515721358851,-2.6279150286501647,2.46052409080695,-1.9834048700584477
1.3517082195745893,10.369922126701375,-0.6420656351446312,0.017419442922847805,1.3658803340686225,1.3492899713160014
-1.757444436031892,1.3656547702439745,3.257106633506689,0.8325067021650978,1.7005163611032927,1.4258237280269266
1.0016217199954696,2.7420715982806545,2.951815730220886,0.14742398173843596,0.9521089448313838,2.305959327326744
-5.149602082272982,5.997426670984693,5.344977323418215,4.84248478441166,1.2476753446626538,5.689813413866228
-1.6988473518977876,6.0018065458247225,2.85312285688895,1.742720408480681,-0.020337615780841922,1.1832180778672095
1.9867349984564013,8.922717767077383,3.7422271851085087,-0.3864012612673421,1.113704841224063,1.1375094852928682
1.486041191635616,7.191776937341593,8.648749140752972,-3.799579283253186,1.4657613133995495,0.7713542194296152
0.07448338412479874,9.877080062020884,-0.130908685767686,-0.010809412171019848,-0.0025746786081713197,0.0029215152928314158
0.29310299473942325,13.223019926277683,1.0681224124294961,1.10366922565218,-1.4510503653033213,0.07823207764719287
2.442812410321196,14.195175481378108,4.4854231899857,2.650608234896956,3.913859763351487,4.248085924263152
0.27747271712894533,9.051592880742552,3.0442418089999794,0.33774868960782933,2.2689241161475664,-0.5867292262192811
5.740303499866448,7.159084543190589,4.519569799327675,2.018544265500079,0.9337099799793285,2.663361122130772
5.688103755141319,6.781400789703326,6.930065547698467,3.445546191521428,1.825675375302693,7.6789499798539085
-4.4335304372242685,15.442465170717092,6.064962068095393,-3.785424070108588,-4.15721393853036,1.3278007897038904
-0.12594000669742328,11.752611398338276,4.282436739749383,-0.6115237783035392,0.5971036830641755,0.5209391742873946
4.55660374570255,14.150775954712046,5.675368219262466,3.680793395571491,2.6328796944374853,1.7019109753644288
-0.13006221365864307,10.78656105704784,2.5806574665015027,2.000856013303538,2.385329017449117,-0.6610161984850071
0.6687845073419161,6.567171085107938,10.500103691436339,3.5124442788765147,-0.4167775123750088,1.2266283339105084
-3.0741044523202303,-1.4923406058328794,0.7716468064793309,0.20091554700477965,6.6695685409450824,-0.5004425588247283
0.3149454963524847,10.03944259878493,1.9191431978630191,-0.061594085795190434,-0.9171825460293364,-0.073334045873101
1.2688220825473358,7.8979181981203626,3.152098429435587,1.7263076274743128,-0.40023817077289836,-0.2631083103192118
-1.8749168939683916,8.151415907468213,-6.080215188271568,1.2140636020779292,1.8476054105361468,-0.5438178479376563
0.40202367182461707,13.400131509166814,0.5537250083420779,-0.12699671362877207,0.5850430253243097,-0.02503305310613957
-0.46821813072808377,9.899424479959542,2.6741192831122476,0.09602514246357152,-0.056230756516240155,0.2696882860118333
-0.556265215408615,10.925265960248055,4.41027964933395,1.0825499615968996,0.5844826616891382,-1.2671296011451711
-8.867607260424759,9.001173483796608,11.621199893998948,-2.500221369869112,1.8590689010932566,0.17857056831827212
2.9080212689229206,4.994588361004822,0.5520925775660022,4.674718361653286,-0.254987672345073,1.6545671574948615
-0.49561412248661846,10.05464413766016,1.8790183746043863,1.1305932797028349,0.38759068131333346,0.7173521899953548
-0.6084498167507528,9.185806683603222,3.0799549329599856,0.6345049918660319,-0.8377102834530983,1.1298931978849174
0.504125678948101,19.200270654262617,1.1365866598223406,0.4683295759147781,-6.393194393563922,-0.5380295629363396
0.17426089800743097,6.677866534255752,2.8571998820057716,1.0143518878065714,0.9045602143151353,1.0140829110224872
-3.254557800171656,7.237234627832118,3.4975132822568273,0.998392689306582,0.25543200735959015,-2.2567705100747677
0.6635491916723477,9.278877249612577,6.845801738911103,3.801848109887509,1.047963519884276,4.3817115084463545
-1.4164896239630986,13.958195087751655,0.31672481803454744,1.6445373120530262,1.5583133246891996,3.899621897922265
1.2366308828859505,15.106734208160491,2.169091008645785,-0.5241621287944382,0.2700030789464706,0.7033160452073174
-0.0053384549604328,0.6591853058540185,12.030708445400549,-1.8790669247857354,-0.8442379916724208,-0.05480370814794089
-0.9202292923163045,9.520037774543473,1.8325369510816585,0.3328145907105457,0.6334600538049643,-0.5185103194421987
-0.8661787351894904,6.622788232311984,0.0207658017840191,-0.7237678631427611,0.8668584887395766,0.3263111679775729
-3.1593954269597524,7.781315188720826,5.383877562903002,3.0564655660844333,0.9582180135637071,-1.1230099663400552
0.02458736822763689,9.85194123831373,0.0975081943147164,0.009845620790427952,0.0055684729063405145,-0.004730521580990738
-1.0091477767351236,9.913056378668006,-1.4033543743115358,0.031650082810746216,2.819162612767652,4.900093753105977
0.259243450323179,10.32986995050268,0.19679083611546871,-0.019632230750129872,0.009281261974498821,-0.06931637573034474
0.11077998603352385,10.230307509906101,2.825870610036902,0.6766248864700874,1.187717176366328,0.11342631595853297
-1.1945161479603628,12.030063150256163,2.453762413110983,1.8370555996079743,1.004262786092922,-0.004999237331859585
1.6191672106978447,5.722118120929986,5.33898163976556,2.8785842609709134,4.203707676158052,0.5174216095997446
-6.455674901379515,13.31908525682453,14.871074833623219,4.47356050894207,0.8698928578629105,6.793586963882545
0.8617534987346953,13.588415942238534,-0.11854238027802122,-0.4600996783535177,-0.7329146186841891,1.7230476843370188
-2.473435467472291,14.84384282524706,11.338292646508137,1.7424018693128194,5.6513469819528535,0.4370404413874325
1.0427877943922839,3.383921820566689,4.115559664974999,0.30803868920097144,0.10139172231522076,1.900674391101971
1.9855519382092868,10.361270060789106,1.6693685904892066,0.8053311332538989,-1.2335746026327703,1.4525166259885212
1.274296819162976,8.387906604011828,3.7598265064663776,-0.3244675283108761,-0.7934719797633525,1.756849222832222
3.2512949106977214,6.199839122927496,8.873853586100585,0.9041878918254324,3.828450706211472,3.1872780989221337
-0.5857383038685195,5.669607260261902,2.266685132749925,0.04461240297296981,0.9714258572739033,0.9805636125643786
-1.122757154388828,10.04535554300532,4.722648989663326,8.553181474060377,-1.5665309486272023,5.695003233792942
1.3876719810632099,11.607360291406593,0.16901895244633458,1.3724120186710362,3.076524425495312,2.3774548854795707
-2.8177922180904575,4.991526714591188,0.4328792244486015,-0.4976547173229632,0.12796698893932745,0.4517181924121588
-1.7697616023491016,6.892595667524702,4.516126066971178,0.8608267481486199,0.6178544714618526,1.1088138218963286
-2.0107553670603027,8.198414189245351,0.796066276671799,-3.5170835302269285,1.1720662793089456,0.3660353293886588
2.219563074999561,8.368514747621532,3.7960107852669775,-3.9029225713691797,4.688422751102944,1.6354334901895304
0.09008476311844059,0.7503944357284276,7.215820834787895,2.559856077427818,3.966903356788543,-0.9324887154152197
-0.2187881786740401,11.24152550958696,2.8639260599100327,0.2977547309452173,1.4050129190221168,-0.4650718591578509
1.2439899048093368,5.2246871173833735,7.325252935524004,4.269069735650772,2.618092267133,-0.31348276463700064
-1.1857476125134143,6.339703307547808,1.8635492749512512,1.0095543693954978,0.19238229732084455,-0.8870440744315342
11.656110052998782,6.880930836353633,2.7466968806658723,-2.6633205494349976,-1.680041798134436,4.36725248053772
-3.6909835159878486,17.84323651766791,4.733296673921934,-4.263150329330394,6.015043212264699,1.9271003572077747
1.2847309548013977,15.915721620527862,-1.591236709766739,4.031150169577266,4.00890123195467,-5.462234076045411
-2.0001965732594478,9.86088260610019,1.9687202436172857,0.8023652690126353,0.5419347546095828,0.33460479240216606
-1.7552116412119798,11.343323813682971,7.257203442810102,1.1545161310929748,3.1441861332062606,-1.0313419387820804
0.6531434933250916,10.411378040718608,-0.3490403035706121,-0.05696052413913874,0.022894665891729754,-0.37256514580944244
4.074636122531036,10.078085535997111,8.316737338039252,3.7061027588880213,-0.16409841326805208,-5.139180523358277
-0.21034956956917622,9.536114487010302,3.4453430064594333,0.2904557929014553,0.15252227308087568,0.16023454981338914
0.166477031554886,6.967440239657521,0.657621612531875,1.1793258201257344,1.0469846995267367,0.1776586418060891
3.6737787072707304,0.83837180494554,5.286145373725751,-0.3631138917891077,4.286349883887649,-3.053465429296514
0.3427078620007113,15.170271625003394,3.002948387002741,1.1962102017887384,0.8578020142376589,-0.9514259892904373
-1.9962230432925014,0.2655510293517569,3.6447057972007233,7.964697426796756,3.481527419022501,4.830115210963054
3.4598069443364645,12.770701182109232,2.3811834349001098,1.720995580398709,0.6492605203489004,0.6393848585875946
-0.915245914317379,13.773216022610818,0.5160247614990152,0.055315554060267114,-0.6901361251041371,-1.2289788780519841
1.1293737550306697,5.42726420573873,-0.19527960478289907,0.9291090522086162,3.9525554658530693,0.7643570001707394
-0.757868931378434,10.041911787754737,3.5107950441410716,2.161147755278204,1.3124069877858737,0.31971036649950846
-4.1334921532228055,10.510687659004072,1.727204320588258,0.27030477461367897,1.5855698342286164,0.488965535635593
4.665591806578897,1.8135245312462,-0.08043993360255008,-0.3199960414104783,1.5767929271376604,-3.690446236120181
-4.668455321640141,9.697708270536324,0.17858295207370745,-3.173977248757673,4.505699958022118,4.276491110076587
-6.643594317888502,6.155081395860629,-0.8873968386102007,1.9587364226896233,2.3940769939213267,7.6368656519360645
1.620814056560382,8.41945537070183,-1.2935209753658556,3.370102611900147,0.8272390491651208,-2.4768370315169426
2.0897899772329245,2.3393344659228603,1.3045364558593189,7.35097094083595,-3.1863124380395096,-2.05376128710955
-0.2008487492021926,9.727546408781869,2.807033308165387,-0.19555660714547718,0.6315120864340714,1.6313938168970503
3.685101891687908,14.96208533189385,6.565876514854994,4.939665765845125,0.5454526856374964,-0.01606775958781026
-0.41694148459873903,12.0837181942351,1.6541380368489524,1.2748821397468915,2.6453007430782307,-0.4003731774037764
-2.288630842148867,16.572441092195085,7.979650374615778,-0.44383896968208925,2.714759435728506,-2.1721026302984976
2.8625145739073434,14.777143845325348,8.708594731554113,3.4023580091693177,5.640813099285827,-1.2394850069927692
5.5409858239096375,9.150087353873314,4.3751437288741375,4.134812416900008,-2.2656796719711028,0.5785342700117859
2.7458770307105462,22.551506434750046,5.03524941574444,-0.009899843021392574,-2.1491204648650037,-2.591789241307004
-0.2767882866755486,10.040533667569237,-0.27942850666694263,0.028872359759226626,-0.051838218857548135,-0.02119830985180303
3.3190971398861255,14.366428249724073,2.2188228455661076,-3.605684446891912,-2.659111797800299,-2.0678792718350456
4.643965223364046,12.012306711496887,8.357723826009073,2.5627832965542687,0.31401207967897693,1.2108013747107251
0.3306716266236839,9.35693333606659,0.7506068640088603,0.24574034243264276,0.10238726385088417,-0.21602439634264953
10.654444452597435,1.979017947798197,1.5844417546974192,1.9380856775368127,3.500952048315224,5.860664905556822
1.473798591236152,10.313991243154401,2.6469673595063297,-1.279206532934889,0.3801861454283433,0.7040568948703004
1.059831423160249,3.9781406144922045,1.8312181541548365,-0.250245484288506,-1.1579021117860984,-0.6915454196488033
-1.0157207796388028,8.532003180803429,2.1172866482644785,-0.5718864320020833,1.048348016479795,1.0984492935442967
0.11505445256098754,9.43109611577684,3.1576608498678755,0.6698155590398354,0.12403566386493076,2.5503256097871847
-0.9884376263243004,8.367840490911162,3.207753005661093,-0.26366835067599736,1.072589813316132,0.17630522843044055
-0.7278159376539461,10.00432532120572,1.6778443665358043,0.7647474442777883,1.5207975293320546,-1.0789069243547882
